%% logfile from robot Johanne (48)
% Johanne (48)
%  1    time 0.001 sec
%  2  3  4  5   (mission 0), state 2, entered (thread 1, line 0), events 0x0 (bit-flags)
%  6  7  8 Acc x,y,z [m/s2]: 4.01575 -0.0743213 -8.80348
%  9 10 Motor velocity ref left, right: 0.0000 0.0000
% 11 12 Wheel velocity [m/s] left, right: 0.0000 -0.0000
% 13 14 15 16 Pose x,y,h,tilt [m,m,rad,rad]: 0 0 0 -0.62846
% 17 26 ctrl left , ref=0, m=0, m2=0, uf=0, r2=0, ep=0,up=0, ui=0, u1=0, u=0
% 27 36 ctrl right, ref=0, m=-0, m2=-0, uf=0, r2=0, ep=0,up=0, ui=0, u1=0, u=0
% 37 46 ctrl pos, ref=0, m=0.4954, m2=0.494955, uf=0, r2=0.5, ep=0.0277449,up=0.0277449, ui=0, u1=-0.288933, u=-0.288933
0.001 2 1 0 0 4.015747 -0.074321 -8.803476 0.0000 0.0000 0.0000 -0.0000 0.0000 0.0000 0.000000 -0.628460 0 0 0 0 0 0 0 0 0 0 0 -0 -0 0 0 0 0 0 0 0 0 0.4954 0.494955 0 0.5 0.0277449 0.0277449 0 -0.288933 -0.288933 
0.011 2 1 0 0 4.044517 -0.038359 -8.736347 0.0000 0.0000 0.0000 -0.0000 0.0000 0.0000 0.000000 -0.628477 0 0 0 0 0 0 0 0 0 0 0 -0 -0 0 0 0 0 0 0 0 0 0.4954 0.494955 0 0.5 0.0277449 0.0277449 0 -0.288933 -0.288933 
0.021 2 1 0 0 3.977388 -0.007192 -8.719565 0.0000 0.0000 0.0000 -0.0000 0.0000 0.0000 0.000000 -0.628474 0 0 0 0 0 0 0 0 0 0 0 -0 -0 0 0 0 0 0 0 0 0 0.4954 0.494955 0 0.5 0.0277449 0.0277449 0 -0.288933 -0.288933 
0.031 2 1 0 0 3.955810 -0.004795 -8.681206 0.0000 0.0000 0.0000 -0.0000 0.0000 0.0000 0.000000 -0.628514 0 0 0 0 0 0 0 0 0 0 0 -0 -0 0 0 0 0 0 0 0 0 0.4954 0.494955 0 0.5 0.0277449 0.0277449 0 -0.288933 -0.288933 
0.041 2 1 0 0 4.013350 -0.047949 -8.688398 0.0000 0.0000 0.0000 -0.0000 0.0000 0.0000 0.000000 -0.628526 0 0 0 0 0 0 0 0 0 0 0 -0 -0 0 0 0 0 0 0 0 0 0.4954 0.494955 0 0.5 0.0277449 0.0277449 0 -0.288933 -0.288933 
0.051 2 1 0 0 4.013350 -0.021577 -8.695591 0.0000 0.0000 0.0000 -0.0000 0.0000 0.0000 0.000000 -0.628538 0 0 0 0 0 0 0 0 0 0 0 -0 -0 0 0 0 0 0 0 0 0 0.4954 0.494955 0 0.5 0.0277449 0.0277449 0 -0.288933 -0.288933 
0.061 2 1 0 0 3.982183 -0.014385 -8.719565 0.0000 0.0000 0.0000 -0.0000 0.0000 0.0000 0.000000 -0.628544 0 0 0 0 0 0 0 0 0 0 0 -0 -0 0 0 0 0 0 0 0 0 0.4954 0.494955 0 0.5 0.0277449 0.0277449 0 -0.288933 -0.288933 
0.071 2 1 0 0 3.960605 0.009590 -8.741142 0.0000 0.0000 0.0000 -0.0000 0.0000 0.0000 0.000000 -0.628519 0 0 0 0 0 0 0 0 0 0 0 -0 -0 0 0 0 0 0 0 0 0 0.4954 0.494955 0 0.5 0.0277449 0.0277449 0 -0.288933 -0.288933 
0.081 2 1 0 0 4.013350 -0.047949 -8.671616 0.0000 0.0000 0.0000 -0.0000 0.0000 0.0000 0.000000 -0.628512 0 0 0 0 0 0 0 0 0 0 0 -0 -0 0 0 0 0 0 0 0 0 0.4954 0.494955 0 0.5 0.0277449 0.0277449 0 -0.288933 -0.288933 
0.091 2 1 0 0 4.039721 0.059937 -8.695591 0.0000 0.0000 0.0000 -0.0000 0.0000 0.0000 0.000000 -0.628574 0 0 0 0 0 0 0 0 0 0 0 -0 -0 0 0 0 0 0 0 0 0 0.4954 0.494955 0 0.5 0.0277449 0.0277449 0 -0.288933 -0.288933 
0.101 2 1 1 0 3.977388 -0.035962 -8.717168 2.7521 2.7521 0.0000 -0.0000 0.0000 0.0000 0.000000 -0.628596 2.75206 0 0 2.75206 2.75206 0 0 0 2.75206 2.75206 2.75206 -0 -0 2.75206 2.75206 0 0 0 2.75206 2.75206 0.5 0 0 0 0.5 2.75 2.75 0.00206456 2.75206 2.75206 
0.111 2 1 1 0 4.732588 0.175015 -9.206249 2.7890 2.7890 0.0000 0.0000 0.0004 0.0000 0.000000 -0.628639 2.78897 0 0 2.78897 2.78897 0 0 0 2.78897 2.78897 2.78897 0 0 2.78897 2.78897 0 0 0 2.78897 2.78897 0.5 0.000401624 0.000794804 0 0.5 2.74563 2.74563 0.0433427 2.78897 2.78897 
0.121 2 1 1 0 6.168667 0.371606 -8.817861 2.8182 2.8079 0.1452 0.1721 0.0020 0.0000 0.005182 -0.631226 2.81824 0.145154 0.145154 2.81824 2.81824 0 0 0 2.81824 2.81824 2.80788 0.172075 0.172075 2.80788 2.80788 0 0 0 2.80788 2.80788 0.5 0.00200812 0.00388772 0 0.5 2.72862 2.72862 0.0844429 2.81306 2.81306 
0.131 2 1 1 0 8.093828 -0.328452 -4.533598 2.8421 2.8421 0.1745 0.0920 0.0032 0.0000 0.000000 -0.638110 2.8421 0.174467 0.174467 2.8421 2.8421 0 0 0 2.8421 2.8421 2.8421 0.091996 0.091996 2.8421 2.8421 0 0 0 2.8421 2.8421 0.5 0.00321299 0.00603756 0 0.5 2.71679 2.71679 0.12531 2.8421 2.8421 
0.141 2 1 1 0 7.089292 1.150781 -8.796284 2.8667 2.8719 0.1336 0.1036 0.0046 0.0000 -0.002591 -0.640408 2.86672 0.133613 0.133613 2.86672 2.86672 0 0 0 2.86672 2.86672 2.8719 0.103607 0.103607 2.8719 2.8719 0 0 0 2.8719 2.8719 0.5 0.00461868 0.00848887 0 0.5 2.70331 2.70331 0.165996 2.86931 2.86931 
0.151 2 1 1 0 6.499516 -0.203784 -6.449170 2.8964 2.9016 0.1170 0.1206 0.0058 0.0000 -0.002591 -0.643385 2.89641 0.117042 0.117042 2.89641 2.89641 0 0 0 2.89641 2.89641 2.90159 0.120624 0.120624 2.90159 2.90159 0 0 0 2.90159 2.90159 0.5 0.00582355 0.0104584 0 0.5 2.69248 2.69248 0.206524 2.899 2.899 
0.161 2 1 1 0 6.036807 0.000000 -7.549604 2.9264 2.9316 0.1254 0.1190 0.0070 0.0000 -0.002591 -0.646182 2.92637 0.125432 0.125432 2.92637 2.92637 0 0 0 2.92637 2.92637 2.93156 0.118956 0.118956 2.93156 2.93156 0 0 0 2.93156 2.93156 0.5 0.00702842 0.0123507 0 0.5 2.68207 2.68207 0.246893 2.92896 2.92896 
0.171 2 1 1 0 5.116181 -0.882266 -10.316274 2.9522 2.9574 0.2016 0.1741 0.0086 -0.0000 -0.002591 -0.645552 2.95222 0.201585 0.201585 2.95222 2.95222 0 0 0 2.95222 2.95222 2.9574 0.174133 0.174133 2.9574 2.9574 0 0 0 2.9574 2.9574 0.5 0.00863492 0.0149583 0 0.5 2.66773 2.66773 0.28708 2.95481 2.95481 
0.181 2 1 1 0 6.065576 -0.508262 -5.598071 2.9741 2.9793 0.1873 0.2024 0.0106 -0.0000 -0.002591 -0.649202 2.97411 0.18731 0.18731 2.97411 2.97411 0 0 0 2.97411 2.97411 2.97929 0.202351 0.202351 2.97929 2.97929 0 0 0 2.97929 2.97929 0.5 0.010643 0.0182374 0 0.5 2.64969 2.64969 0.327006 2.9767 2.9767 
0.191 2 1 1 0 6.566645 0.112681 -8.916157 2.9965 3.0016 0.2303 0.2205 0.0127 -0.0000 -0.002591 -0.652317 2.99647 0.230289 0.230289 2.99647 2.99647 0 0 0 2.99647 2.99647 3.00165 0.220536 0.220536 3.00165 3.00165 0 0 0 3.00165 3.00165 0.5 0.0126512 0.0213818 0 0.5 2.6324 2.6324 0.366657 2.99906 2.99906 
0.201 2 1 1 0 5.590879 0.628135 -7.204370 3.0000 3.0000 0.2268 0.2646 0.0149 -0.0000 0.000000 -0.653576 3 0.226799 0.226799 3 3 0 0 0 3 3 3 0.26456 0.26456 3 3 0 0 0 3 3 0.5 0.0148601 0.0248042 0 0.5 2.61358 2.61358 0.406039 3.01962 3.01962 
0.211 2 1 1 0 5.828228 0.733623 -9.350098 2.9974 3.0026 0.2954 0.2810 0.0175 -0.0000 -0.002591 -0.654807 2.99741 0.295402 0.295402 2.99741 2.99741 0 0 0 2.99741 2.99741 3.00259 0.281044 0.281044 3.00259 3.00259 0 0 0 3.00259 3.00259 0.5 0.0174706 0.0288805 0 0.5 2.59116 2.59116 0.445101 3.03626 3.03626 
0.221 2 1 1 0 6.475542 -0.374004 -5.602866 2.9974 3.0026 0.2639 0.2889 0.0203 -0.0000 -0.002591 -0.658695 2.99741 0.263886 0.263886 2.99741 2.99741 0 0 0 2.99741 2.99741 3.00259 0.288869 0.288869 3.00259 3.00259 0 0 0 3.00259 3.00259 0.5 0.020282 0.0331951 0 0.5 2.56743 2.56743 0.483808 3.05123 3.05123 
0.231 2 1 1 0 7.197177 0.501069 -9.321328 2.9974 3.0026 0.2975 0.2996 0.0235 -0.0000 -0.002591 -0.660403 2.99741 0.297536 0.297536 2.99741 2.99741 0 0 0 2.99741 2.99741 3.00259 0.299598 0.299598 3.00259 3.00259 0 0 0 3.00259 3.00259 0.5 0.023495 0.0381551 0 0.5 2.54015 2.54015 0.522155 3.0623 3.0623 
0.241 2 1 1 0 6.123115 0.958984 -8.829848 2.9974 3.0026 0.3138 0.3362 0.0267 -0.0001 -0.002591 -0.661350 2.99741 0.313769 0.313769 2.99741 2.99741 0 0 0 2.99741 2.99741 3.00259 0.336181 0.336181 3.00259 3.00259 0 0 0 3.00259 3.00259 0.5 0.026708 0.0429487 0 0.5 2.51378 2.51378 0.560116 3.0739 3.0739 
0.251 2 1 1 0 5.892959 -0.119873 -6.691313 2.9974 3.0026 0.3116 0.3485 0.0299 -0.0001 -0.002591 -0.664154 2.99741 0.311638 0.311638 2.99741 2.99741 0 0 0 2.99741 2.99741 3.00259 0.348506 0.348506 3.00259 3.00259 0 0 0 3.00259 3.00259 0.5 0.029921 0.0475747 0 0.5 2.48834 2.48834 0.597675 3.08601 3.08601 
0.261 2 1 1 0 6.238193 0.187002 -8.904170 2.9974 3.0026 0.3757 0.3313 0.0335 -0.0001 -0.002591 -0.666200 2.99741 0.375701 0.375701 2.99741 2.99741 0 0 0 2.99741 2.99741 3.00259 0.331305 0.331305 3.00259 3.00259 0 0 0 3.00259 3.00259 0.5 0.0335356 0.0528388 0 0.5 2.45939 2.45939 0.634822 3.09421 3.09421 
0.271 2 1 1 0 4.533598 -0.630532 -7.024560 2.9974 3.0026 0.3572 0.3621 0.0372 -0.0001 -0.002591 -0.667106 2.99741 0.357171 0.357171 2.99741 2.99741 0 0 0 2.99741 2.99741 3.00259 0.362123 0.362123 3.00259 3.00259 0 0 0 3.00259 3.00259 0.5 0.0371502 0.0579324 0 0.5 2.43137 2.43137 0.671536 3.10291 3.10291 
0.281 2 1 1 0 4.595932 0.390786 -7.556797 2.9974 3.0026 0.4159 0.4164 0.0412 -0.0001 -0.002591 -0.669239 2.99741 0.415939 0.415939 2.99741 2.99741 0 0 0 2.99741 2.99741 3.00259 0.416388 0.416388 3.00259 3.00259 0 0 0 3.00259 3.00259 0.5 0.0411664 0.0636612 0 0.5 2.39986 2.39986 0.707805 3.10767 3.10767 
0.291 2 1 1 0 6.147089 -0.333247 -9.350098 2.9948 3.0052 0.4088 0.4086 0.0454 -0.0001 -0.005182 -0.671035 2.99482 0.408812 0.408812 2.99482 2.99482 0 0 0 2.99482 2.99482 3.00518 0.408639 0.408639 3.00518 3.00518 0 0 0 3.00518 3.00518 0.5 0.0453835 0.0696135 0 0.5 2.36713 2.36713 0.7436 3.11073 3.11073 
0.301 2 1 1 0 5.027475 0.182207 -6.585825 2.9948 3.0052 0.4567 0.4300 0.0494 -0.0001 -0.005182 -0.673773 2.99482 0.45665 0.45665 2.99482 2.99482 0 0 0 2.99482 2.99482 3.00518 0.430004 0.430004 3.00518 3.00518 0 0 0 3.00518 3.00518 0.5 0.0493997 0.0749944 0 0.5 2.33753 2.33753 0.778919 3.11645 3.11645 
0.311 2 1 1 0 5.528545 -0.419556 -8.247266 2.9948 3.0052 0.4148 0.4589 0.0538 -0.0001 -0.005182 -0.673804 2.99482 0.414829 0.414829 2.99482 2.99482 0 0 0 2.99482 2.99482 3.00518 0.458912 0.458912 3.00518 3.00518 0 0 0 3.00518 3.00518 0.5 0.0538176 0.0810099 0 0.5 2.30445 2.30445 0.813751 3.1182 3.1182 
0.321 2 1 1 0 5.806650 1.220308 -7.659887 2.9948 3.0052 0.5088 0.4587 0.0582 -0.0002 -0.005182 -0.673801 2.99482 0.508814 0.508814 2.99482 2.99482 0 0 0 2.99482 2.99482 3.00518 0.458671 0.458671 3.00518 3.00518 0 0 0 3.00518 3.00518 0.5 0.0582354 0.0868825 0 0.5 2.27215 2.27215 0.848122 3.12027 3.12027 
0.331 2 1 1 0 5.051450 -2.066611 -9.026441 2.9922 3.0078 0.5211 0.4824 0.0629 -0.0002 -0.007773 -0.675034 2.99223 0.521138 0.521138 2.99223 2.99223 0 0 0 2.99223 2.99223 3.00777 0.482407 0.482407 3.00777 3.00777 0 0 0 3.00777 3.00777 0.5 0.0628541 0.0929924 0 0.5 2.23854 2.23854 0.881987 3.12053 3.12053 
0.341 2 1 1 0 6.058383 0.616147 -7.899633 2.9922 3.0078 0.4839 0.4549 0.0677 -0.0002 -0.007773 -0.676992 2.99223 0.483933 0.483933 2.99223 2.99223 0 0 0 2.99223 2.99223 3.00777 0.454948 0.454948 3.00777 3.00777 0 0 0 3.00777 3.00777 0.5 0.0676736 0.0993362 0 0.5 2.20365 2.20365 0.915326 3.11898 3.11898 
0.351 2 1 1 0 4.972334 -0.412363 -5.466211 2.9922 3.0078 0.5193 0.4619 0.0725 -0.0003 -0.007773 -0.678280 2.99223 0.519286 0.519286 2.99223 2.99223 0 0 0 2.99223 2.99223 3.00777 0.461947 0.461947 3.00777 3.00777 0 0 0 3.00777 3.00777 0.5 0.0724931 0.105534 0 0.5 2.16956 2.16956 0.94816 3.11772 3.11772 
0.361 2 1 1 0 4.655869 -0.455518 -7.890044 2.9922 3.0078 0.4966 0.4988 0.0777 -0.0003 -0.007773 -0.679095 2.99223 0.49665 0.49665 2.99223 2.99223 0 0 0 2.99223 2.99223 3.00777 0.498809 0.498809 3.00777 3.00777 0 0 0 3.00777 3.00777 0.5 0.0777142 0.11238 0 0.5 2.13191 2.13191 0.980462 3.11237 3.11237 
0.371 2 1 1 0 6.142295 1.416899 -7.002983 2.9896 3.0104 0.5479 0.5071 0.0827 -0.0004 -0.010364 -0.680897 2.98964 0.547949 0.547949 2.98964 2.98964 0 0 0 2.98964 2.98964 3.01036 0.507128 0.507128 3.01036 3.01036 0 0 0 3.01036 3.01036 0.5 0.0827345 0.118671 0 0.5 2.09731 2.09731 1.01222 3.10953 3.10953 
0.381 2 1 1 0 4.212339 -1.040498 -8.434267 2.9896 3.0104 0.5235 0.5346 0.0880 -0.0004 -0.010364 -0.681789 2.98964 0.523544 0.523544 2.98964 2.98964 0 0 0 2.98964 2.98964 3.01036 0.534578 0.534578 3.01036 3.01036 0 0 0 3.01036 3.01036 0.5 0.0879556 0.125216 0 0.5 2.06131 2.06131 1.04344 3.10475 3.10475 
0.391 2 1 1 0 6.717685 1.738159 -9.647383 2.9870 3.0130 0.5408 0.5508 0.0934 -0.0005 -0.012956 -0.683001 2.98704 0.540756 0.540756 2.98704 2.98704 0 0 0 2.98704 2.98704 3.01296 0.550767 0.550767 3.01296 3.01296 0 0 0 3.01296 3.01296 0.5 0.0933776 0.132018 0 0.5 2.0239 2.0239 1.0741 3.098 3.098 
0.401 2 1 1 0 5.895356 -0.273311 -9.635395 2.9870 3.0130 0.5535 0.5428 0.0990 -0.0005 -0.012956 -0.683939 2.98704 0.553487 0.553487 2.98704 2.98704 0 0 0 2.98704 2.98704 3.01296 0.542796 0.542796 3.01296 3.01296 0 0 0 3.01296 3.01296 0.5 0.0990003 0.139073 0 0.5 1.9851 1.9851 1.1042 3.0893 3.0893 
0.411 2 1 1 0 5.811445 3.051968 -5.725137 2.9819 3.0181 0.6124 0.5120 0.1046 -0.0006 -0.018138 -0.684869 2.98186 0.612426 0.612426 2.98186 2.98186 0 0 0 2.98186 2.98186 3.01814 0.511976 0.511976 3.01814 3.01814 0 0 0 3.01814 3.01814 0.5 0.104623 0.145987 0 0.5 1.94707 1.94707 1.13372 3.08079 3.08079 
0.421 2 1 1 0 4.080478 -1.901186 -9.649780 2.9819 3.0181 0.5994 0.5563 0.1102 -0.0007 -0.018138 -0.684263 2.98186 0.599402 0.599402 2.98186 2.98186 0 0 0 2.98186 2.98186 3.01814 0.55633 0.55633 3.01814 3.01814 0 0 0 3.01814 3.01814 0.5 0.110246 0.152765 0 0.5 1.90979 1.90979 1.16267 3.07246 3.07246 
0.431 2 1 1 0 3.689692 -1.476836 -8.530166 2.9819 3.0181 0.5807 0.5950 0.1163 -0.0008 -0.018138 -0.685201 2.98186 0.580696 0.580696 2.98186 2.98186 0 0 0 2.98186 2.98186 3.01814 0.594962 0.594962 3.01814 3.01814 0 0 0 3.01814 3.01814 0.5 0.11627 0.160222 0 0.5 1.86878 1.86878 1.19105 3.05983 3.05983 
0.441 2 1 1 0 6.394028 -0.582583 -10.052553 2.9793 3.0207 0.6492 0.5863 0.1221 -0.0009 -0.020729 -0.687241 2.97927 0.649177 0.649177 2.97927 2.97927 0 0 0 2.97927 2.97927 3.02073 0.586348 0.586348 3.02073 3.02073 0 0 0 3.02073 3.02073 0.5 0.122094 0.167137 0 0.5 1.83075 1.83075 1.21883 3.04957 3.04957 
0.451 2 1 1 0 5.545327 2.217651 -7.556797 2.9793 3.0207 0.5845 0.6369 0.1281 -0.0011 -0.020729 -0.685754 2.97927 0.584499 0.584499 2.97927 2.97927 0 0 0 2.97927 2.97927 3.02073 0.636909 0.636909 3.02073 3.02073 0 0 0 3.02073 3.02073 0.5 0.128118 0.174335 0 0.5 1.79116 1.79116 1.24602 3.03718 3.03718 
0.461 2 1 1 0 4.020542 -1.225103 -8.870605 2.9793 3.0207 0.6723 0.6242 0.1341 -0.0012 -0.020729 -0.686713 2.97927 0.672268 0.672268 2.97927 2.97927 0 0 0 2.97927 2.97927 3.02073 0.624205 0.624205 3.02073 3.02073 0 0 0 3.02073 3.02073 0.5 0.134143 0.181409 0 0.5 1.75225 1.75225 1.27263 3.02487 3.02487 
0.471 2 1 1 0 4.164390 -1.814878 -10.208388 2.9793 3.0207 0.6417 0.6275 0.1406 -0.0013 -0.020729 -0.688316 2.97927 0.641657 0.641657 2.97927 2.97927 0 0 0 2.97927 2.97927 3.02073 0.627456 0.627456 3.02073 3.02073 0 0 0 3.02073 3.02073 0.5 0.140569 0.189155 0 0.5 1.70965 1.70965 1.29861 3.00825 3.00825 
0.481 2 1 1 0 4.591137 -1.874814 -7.561592 2.9706 3.0172 0.6303 0.6204 0.1468 -0.0015 -0.023320 -0.688624 2.97057 0.630287 0.630287 2.97057 2.97057 0 0 0 2.97057 2.97057 3.01721 0.620429 0.620429 3.01721 3.01721 0 0 0 3.01721 3.01721 0.5 0.146794 0.196377 0 0.5 1.66993 1.66993 1.32397 2.99389 2.99389 
0.491 2 1 1 0 5.653213 -1.426489 -12.191089 2.9492 3.0010 0.6327 0.6291 0.1534 -0.0016 -0.025911 -0.687917 2.94922 0.632686 0.632686 2.94922 2.94922 0 0 0 2.94922 2.94922 3.00104 0.629094 0.629094 3.00104 3.00104 0 0 0 3.00104 3.00104 0.5 0.153421 0.204289 0 0.5 1.62641 1.62641 1.34872 2.97513 2.97513 
0.501 2 1 1 0 6.832764 0.306875 -9.294956 2.9327 2.9845 0.6515 0.6294 0.1598 -0.0018 -0.025911 -0.689098 2.93267 0.651546 0.651546 2.93267 2.93267 0 0 0 2.93267 2.93267 2.98449 0.629381 0.629381 2.98449 2.98449 0 0 0 2.98449 2.98449 0.5 0.159847 0.211685 0 0.5 1.58573 1.58573 1.37285 2.95858 2.95858 
0.511 2 1 1 0 5.094604 -1.450464 -11.188950 2.9113 2.9683 0.6835 0.6390 0.1665 -0.0020 -0.028502 -0.689587 2.91132 0.683518 0.683518 2.91132 2.91132 0 0 0 2.91132 2.91132 2.96833 0.638978 0.638978 2.96833 2.96833 0 0 0 2.96833 2.96833 0.5 0.166473 0.219366 0 0.5 1.54349 1.54349 1.39634 2.93982 2.93982 
0.521 2 1 1 0 2.567681 0.649712 -8.300010 2.8947 2.9517 0.6880 0.6403 0.1729 -0.0022 -0.028502 -0.686919 2.89468 0.688007 0.688007 2.89468 2.89468 0 0 0 2.89468 2.89468 2.95169 0.640336 0.640336 2.95169 2.95169 0 0 0 2.95169 2.95169 0.5 0.172899 0.226552 0 0.5 1.50397 1.50397 1.41922 2.92319 2.92319 
0.531 2 1 1 0 3.548242 -0.213374 -7.772568 2.8688 2.9310 0.7033 0.6895 0.1799 -0.0024 -0.031093 -0.687378 2.86878 0.703318 0.703318 2.86878 2.86878 0 0 0 2.86878 2.86878 2.93097 0.689483 0.689483 2.93097 2.93097 0 0 0 2.93097 2.93097 0.5 0.179928 0.234834 0 0.5 1.45841 1.45841 1.44146 2.89987 2.89987 
0.541 2 1 1 0 5.552519 -1.620684 -9.609023 2.8477 2.9098 0.6816 0.7350 0.1867 -0.0026 -0.031093 -0.689294 2.84766 0.681585 0.681585 2.84766 2.84766 0 0 0 2.84766 2.84766 2.90985 0.735014 0.735014 2.90985 2.90985 0 0 0 2.90985 2.90985 0.5 0.186755 0.242597 0 0.5 1.41572 1.41572 1.46304 2.87875 2.87875 
0.551 2 1 1 0 5.399082 2.308755 -5.576494 2.8216 2.8890 0.6860 0.6660 0.1938 -0.0028 -0.033685 -0.689127 2.82164 0.685999 0.685999 2.82164 2.82164 0 0 0 2.82164 2.82164 2.88901 0.665997 0.665997 2.88901 2.88901 0 0 0 2.88901 2.88901 0.5 0.193784 0.250662 0 0.5 1.37136 1.37136 1.48397 2.85533 2.85533 
0.561 2 1 1 0 5.993652 1.877212 -8.189726 2.7951 2.8728 0.6880 0.6885 0.2006 -0.0031 -0.038867 -0.688646 2.79511 0.688007 0.688007 2.79511 2.79511 0 0 0 2.79511 2.79511 2.87284 0.688547 0.688547 2.87284 2.87284 0 0 0 2.87284 2.87284 0.5 0.200611 0.258234 0 0.5 1.32971 1.32971 1.50426 2.83397 2.83397 
0.571 2 1 1 0 6.681724 -0.426748 -10.654316 2.7740 2.8465 0.7751 0.7009 0.2076 -0.0034 -0.036276 -0.689914 2.77397 0.775149 0.775149 2.77397 2.77397 0 0 0 2.77397 2.77397 2.84653 0.700864 0.700864 2.84653 2.84653 0 0 0 2.84653 2.84653 0.5 0.20764 0.26612 0 0.5 1.28634 1.28634 1.52391 2.81025 2.81025 
0.581 2 1 1 0 5.303184 -0.028770 -7.619131 2.7475 2.8252 0.7546 0.7046 0.2146 -0.0036 -0.038867 -0.690197 2.7475 0.754578 0.754578 2.7475 2.7475 0 0 0 2.7475 2.7475 2.82523 0.704604 0.704604 2.82523 2.82523 0 0 0 2.82523 2.82523 0.5 0.214668 0.273916 0 0.5 1.24346 1.24346 1.54291 2.78637 2.78637 
0.591 2 1 1 0 3.291714 0.122271 -8.959311 2.7208 2.8037 0.7407 0.6826 0.2216 -0.0039 -0.041458 -0.689072 2.72079 0.740662 0.740662 2.72079 2.72079 0 0 0 2.72079 2.72079 2.80371 0.68255 0.68255 2.80371 2.80371 0 0 0 2.80371 2.80371 0.5 0.221697 0.28164 0 0.5 1.20098 1.20098 1.56127 2.76225 2.76225 
0.601 2 1 1 0 4.547983 -0.139053 -7.669477 2.6986 2.7815 0.6975 0.7089 0.2285 -0.0042 -0.041458 -0.689859 2.69857 0.697466 0.697466 2.69857 2.69857 0 0 0 2.69857 2.69857 2.78148 0.708905 0.708905 2.78148 2.78148 0 0 0 2.78148 2.78148 0.5 0.228524 0.288909 0 0.5 1.161 1.161 1.57902 2.74003 2.74003 
0.611 2 1 1 0 4.348994 1.026113 -8.705180 2.6717 2.7546 0.6975 0.7164 0.2357 -0.0045 -0.041458 -0.690186 2.67171 0.697466 0.697466 2.67171 2.67171 0 0 0 2.67171 2.67171 2.75463 0.716439 0.716439 2.75463 2.75463 0 0 0 2.75463 2.75463 0.5 0.235754 0.296901 0 0.5 1.11704 1.11704 1.59613 2.71317 2.71317 
0.621 2 1 1 0 2.795439 0.055142 -6.976611 2.6442 2.7323 0.6900 0.7007 0.2427 -0.0048 -0.044049 -0.689898 2.64417 0.690026 0.690026 2.64417 2.64417 0 0 0 2.64417 2.64417 2.73227 0.70066 0.70066 2.73227 2.73227 0 0 0 2.73227 2.73227 0.5 0.242782 0.304433 0 0.5 1.07562 1.07562 1.6126 2.68822 2.68822 
0.631 2 1 1 0 4.605522 0.237349 -9.218237 2.6167 2.7048 0.7062 0.7266 0.2499 -0.0051 -0.044049 -0.690830 2.6167 0.706204 0.706204 2.6167 2.6167 0 0 0 2.6167 2.6167 2.70479 0.726647 0.726647 2.70479 2.70479 0 0 0 2.70479 2.70479 0.5 0.250011 0.312308 0 0.5 1.0323 1.0323 1.62844 2.66074 2.66074 
0.641 2 1 1 0 4.665459 -2.071406 -9.434009 2.5885 2.6818 0.6898 0.7315 0.2570 -0.0054 -0.046640 -0.691782 2.58854 0.689779 0.689779 2.58854 2.58854 0 0 0 2.58854 2.58854 2.68182 0.7315 0.7315 2.68182 2.68182 0 0 0 2.68182 2.68182 0.5 0.25704 0.31972 0 0.5 0.991542 0.991542 1.64364 2.63518 2.63518 
0.651 2 1 1 0 1.174756 -0.383594 -5.590879 2.5652 2.6532 0.7084 0.7048 0.2640 -0.0058 -0.044049 -0.691136 2.56515 0.708436 0.708436 2.56515 2.56515 0 0 0 2.56515 2.56515 2.65325 0.70481 0.70481 2.65325 2.65325 0 0 0 2.65325 2.65325 0.5 0.264068 0.327097 0 0.5 0.950968 0.950968 1.65823 2.6092 2.6092 
0.661 2 1 1 0 4.130825 -1.227500 -9.249404 2.5362 2.6295 0.7979 0.7117 0.2710 -0.0061 -0.046640 -0.691181 2.53618 0.797862 0.797862 2.53618 2.53618 0 0 0 2.53618 2.53618 2.62946 0.711731 0.711731 2.62946 2.62946 0 0 0 2.62946 2.62946 0.5 0.271097 0.334436 0 0.5 0.9106 0.9106 1.67222 2.58282 2.58282 
0.671 2 1 1 0 4.154799 0.426748 -8.086636 2.5068 2.6052 0.7179 0.7198 0.2780 -0.0064 -0.049231 -0.689582 2.50678 0.717934 0.717934 2.50678 2.50678 0 0 0 2.50678 2.50678 2.60525 0.719756 0.719756 2.60525 2.60525 0 0 0 2.60525 2.60525 0.5 0.278125 0.341741 0 0.5 0.870426 0.870426 1.68559 2.55601 2.55601 
0.681 2 1 1 0 2.627617 -0.704853 -8.391113 2.4817 2.5802 0.6870 0.6974 0.2848 -0.0067 -0.049231 -0.687874 2.48171 0.687026 0.687026 2.48171 2.48171 0 0 0 2.48171 2.48171 2.58018 0.697365 0.697365 2.58018 2.58018 0 0 0 2.58018 2.58018 0.5 0.284953 0.348623 0 0.5 0.832575 0.832575 1.69837 2.53095 2.53095 
0.691 2 1 1 0 4.984321 -1.138794 -10.642329 2.4518 2.5502 0.6975 0.7076 0.2921 -0.0071 -0.049231 -0.689423 2.45177 0.697466 0.697466 2.45177 2.45177 0 0 0 2.45177 2.45177 2.55023 0.707604 0.707604 2.55023 2.55023 0 0 0 2.55023 2.55023 0.5 0.292182 0.356282 0 0.5 0.790448 0.790448 1.71055 2.501 2.501 
0.701 2 1 1 0 3.680102 -0.338042 -8.791489 2.4210 2.5247 0.6980 0.6722 0.2991 -0.0074 -0.051822 -0.689166 2.42101 0.698021 0.698021 2.42101 2.42101 0 0 0 2.42101 2.42101 2.52465 0.672174 0.672174 2.52465 2.52465 0 0 0 2.52465 2.52465 0.5 0.29921 0.363507 0 0.5 0.750709 0.750709 1.72212 2.47283 2.47283 
0.711 2 1 1 0 4.116440 0.939805 -8.844234 2.3898 2.4986 0.6982 0.6896 0.3061 -0.0078 -0.054414 -0.687618 2.38975 0.698224 0.698224 2.38975 2.38975 0 0 0 2.38975 2.38975 2.49858 0.689631 0.689631 2.49858 2.49858 0 0 0 2.49858 2.49858 0.5 0.306239 0.370715 0 0.5 0.711067 0.711067 1.7331 2.44416 2.44416 
0.721 2 1 1 0 2.982441 0.182207 -7.981147 2.3580 2.4720 0.6978 0.6764 0.3131 -0.0082 -0.057005 -0.687945 2.358 0.697819 0.697819 2.358 2.358 0 0 0 2.358 2.358 2.47201 0.676372 0.676372 2.47201 2.47201 0 0 0 2.47201 2.47201 0.5 0.313267 0.377905 0 0.5 0.671525 0.671525 1.74348 2.415 2.415 
0.731 2 1 1 0 4.428110 0.829521 -7.278691 2.3262 2.4402 0.6962 0.7046 0.3203 -0.0086 -0.057005 -0.688441 2.32616 0.696156 0.696156 2.32616 2.32616 0 0 0 2.32616 2.32616 2.44017 0.704604 0.704604 2.44017 2.44017 0 0 0 2.44017 2.44017 0.5 0.320497 0.38547 0 0.5 0.629914 0.629914 1.75325 2.38317 2.38317 
0.741 2 1 1 0 2.994429 1.378540 -6.573838 2.2982 2.4122 0.7263 0.6857 0.3271 -0.0090 -0.057005 -0.686158 2.29821 0.726319 0.726319 2.29821 2.29821 0 0 0 2.29821 2.29821 2.41222 0.685707 0.685707 2.41222 2.41222 0 0 0 2.41222 2.41222 0.5 0.327324 0.392223 0 0.5 0.592775 0.592775 1.76244 2.35522 2.35522 
0.751 2 1 1 0 3.749629 0.879868 -6.600210 2.2649 2.3841 0.7480 0.6485 0.3342 -0.0094 -0.059596 -0.685341 2.26493 0.748019 0.748019 2.26493 2.26493 0 0 0 2.26493 2.26493 2.38412 0.648478 0.648478 2.38412 2.38412 0 0 0 2.38412 2.38412 0.5 0.334353 0.399368 0 0.5 0.553477 0.553477 1.77104 2.32452 2.32452 
0.761 2 1 1 0 3.967798 -0.580186 -8.244868 2.2311 2.3555 0.7127 0.7010 0.3412 -0.0099 -0.062187 -0.685515 2.23111 0.712679 0.712679 2.23111 2.23111 0 0 0 2.23111 2.23111 2.35548 0.701017 0.701017 2.35548 2.35548 0 0 0 2.35548 2.35548 0.5 0.341381 0.406503 0 0.5 0.514234 0.514234 1.77906 2.2933 2.2933 
0.771 2 1 1 0 1.342578 0.592173 -8.383921 2.2015 2.3259 0.6945 0.6795 0.3480 -0.0103 -0.062187 -0.683087 2.20154 0.694501 0.694501 2.20154 2.20154 0 0 0 2.20154 2.20154 2.32592 0.679471 0.679471 2.32592 2.32592 0 0 0 2.32592 2.32592 0.5 0.348209 0.413231 0 0.5 0.477232 0.477232 1.7865 2.26373 2.26373 
0.781 2 1 1 0 2.613232 -0.469902 -6.262168 2.1670 2.2914 0.6961 0.6656 0.3552 -0.0107 -0.062187 -0.682198 2.16704 0.696106 0.696106 2.16704 2.16704 0 0 0 2.16704 2.16704 2.29142 0.665629 0.665629 2.29142 2.29142 0 0 0 2.29142 2.29142 0.5 0.355438 0.420747 0 0.5 0.435889 0.435889 1.79334 2.22923 2.22923 
0.791 2 1 1 0 4.790127 0.311670 -12.080805 2.1316 2.2612 0.6848 0.7042 0.3622 -0.0112 -0.064778 -0.683557 2.13161 0.68483 0.68483 2.13161 2.13161 0 0 0 2.13161 2.13161 2.26116 0.704243 0.704243 2.26116 2.26116 0 0 0 2.26116 2.26116 0.5 0.362466 0.427857 0 0.5 0.396786 0.396786 1.7996 2.19639 2.19639 
0.801 2 1 1 0 2.963262 -0.551416 -7.645503 2.1004 2.2300 0.7459 0.7294 0.3690 -0.0116 -0.064778 -0.681611 2.10044 0.745878 0.745878 2.10044 2.10044 0 0 0 2.10044 2.10044 2.22999 0.729397 0.729397 2.22999 2.22999 0 0 0 2.22999 2.22999 0.5 0.369294 0.434556 0 0.5 0.359944 0.359944 1.80527 2.16522 2.16522 
0.811 2 1 1 0 4.739780 -0.172617 -9.527510 2.0687 2.1982 0.6634 0.6849 0.3758 -0.0121 -0.064778 -0.681379 2.06866 0.66343 0.66343 2.06866 2.06866 0 0 0 2.06866 2.06866 2.19822 0.684878 0.684878 2.19822 2.19822 0 0 0 2.19822 2.19822 0.5 0.376122 0.441261 0 0.5 0.323063 0.323063 1.81038 2.13344 2.13344 
0.821 2 1 1 0 3.632153 -0.982959 -9.659369 2.0363 2.1658 0.7087 0.6575 0.3827 -0.0125 -0.064778 -0.678888 2.03626 0.708748 0.708748 2.03626 2.03626 0 0 0 2.03626 2.03626 2.16582 0.657502 0.657502 2.16582 2.16582 0 0 0 2.16582 2.16582 0.5 0.382949 0.447981 0 0.5 0.286104 0.286104 1.81494 2.10104 2.10104 
0.831 2 1 1 0 2.771465 0.222964 -11.512607 2.0032 2.1328 0.6636 0.6780 0.3895 -0.0130 -0.064778 -0.676471 2.00323 0.663567 0.663567 2.00323 2.00323 0 0 0 2.00323 2.00323 2.13278 0.67799 0.67799 2.13278 2.13278 0 0 0 2.13278 2.13278 0.5 0.389777 0.454716 0 0.5 0.249061 0.249061 1.81894 2.06801 2.06801 
0.841 2 1 1 0 3.588999 -0.088706 -6.871123 1.9692 2.1039 0.6924 0.6750 0.3961 -0.0134 -0.067369 -0.676961 1.96918 0.692405 0.692405 1.96918 1.96918 0 0 0 1.96918 1.96918 2.10392 0.674951 0.674951 2.10392 2.10392 0 0 0 2.10392 2.10392 0.5 0.396404 0.461066 0 0.5 0.214139 0.214139 1.82241 2.03655 2.03655 
0.851 2 1 1 0 4.694228 1.011729 -9.230225 1.9349 2.0696 0.6490 0.6595 0.4029 -0.0139 -0.067369 -0.676883 1.93488 0.649046 0.649046 1.93488 1.93488 0 0 0 1.93488 1.93488 2.06962 0.659481 0.659481 2.06962 2.06962 0 0 0 2.06962 2.06962 0.5 0.403231 0.467832 0 0.5 0.176926 0.176926 1.82532 2.00225 2.00225 
0.861 2 1 1 0 3.039980 -1.030908 -8.134584 1.8999 2.0347 0.6758 0.6650 0.4097 -0.0144 -0.067369 -0.674989 1.89994 0.675803 0.675803 1.89994 1.89994 0 0 0 1.89994 1.89994 2.03468 0.665032 0.665032 2.03468 2.03468 0 0 0 2.03468 2.03468 0.5 0.410059 0.474616 0 0.5 0.13961 0.13961 1.8277 1.96731 1.96731 
0.871 2 1 1 0 3.804770 0.179810 -10.090913 1.8687 2.0035 0.6658 0.6557 0.4161 -0.0148 -0.067369 -0.674197 1.86875 0.665767 0.665767 1.86875 1.86875 0 0 0 1.86875 1.86875 2.00349 0.655713 0.655713 2.00349 2.00349 0 0 0 2.00349 2.00349 0.5 0.416485 0.480624 0 0.5 0.106567 0.106567 1.82955 1.93612 1.93612 
0.881 2 1 1 0 4.368174 -0.738418 -8.743540 1.8321 1.9720 0.6343 0.6524 0.4227 -0.0152 -0.069960 -0.674250 1.83207 0.63431 0.63431 1.83207 1.83207 0 0 0 1.83207 1.83207 1.97199 0.652428 0.652428 1.97199 1.97199 0 0 0 1.97199 1.97199 0.5 0.423112 0.487065 0 0.5 0.071144 0.071144 1.83089 1.90203 1.90203 
0.891 2 1 1 0 4.389751 -0.134258 -9.628202 1.7995 1.9394 0.6124 0.6474 0.4291 -0.0157 -0.069960 -0.672988 1.79953 0.612426 0.612426 1.79953 1.79953 0 0 0 1.79953 1.79953 1.93945 0.647389 0.647389 1.93945 1.93945 0 0 0 1.93945 1.93945 0.5 0.429537 0.49313 0 0.5 0.0377868 0.0377868 1.8317 1.86949 1.86949 
0.901 2 1 1 0 2.133740 0.088706 -8.980888 1.7711 1.9058 0.6225 0.6355 0.4354 -0.0161 -0.067369 -0.670775 1.77106 0.622472 0.622472 1.77106 1.77106 0 0 0 1.77106 1.77106 1.9058 0.635523 0.635523 1.9058 1.9058 0 0 0 1.9058 1.9058 0.5 0.435763 0.498835 0 0.5 0.00640801 0.00640801 1.83202 1.83843 1.83843 
0.911 2 1 1 0 4.636689 0.081514 -8.849028 1.7371 1.8718 0.6478 0.6424 0.4418 -0.0165 -0.067369 -0.671531 1.73705 0.647781 0.647781 1.73705 1.73705 0 0 0 1.73705 1.73705 1.87179 0.642427 0.642427 1.87179 1.87179 0 0 0 1.87179 1.87179 0.5 0.442189 0.504989 0 0.5 -0.0274383 -0.0274383 1.83186 1.80442 1.80442 
0.921 2 1 1 0 3.663320 0.148643 -7.928403 1.7072 1.8367 0.5896 0.6316 0.4480 -0.0169 -0.064778 -0.669402 1.70717 0.589612 0.589612 1.70717 1.70717 0 0 0 1.70717 1.70717 1.83672 0.631608 0.631608 1.83672 1.83672 0 0 0 1.83672 1.83672 0.5 0.448414 0.510774 0 0.5 -0.0592548 -0.0592548 1.8312 1.77194 1.77194 
0.931 2 1 1 0 2.222446 -0.340439 -8.534961 1.6765 1.8009 0.6365 0.6183 0.4542 -0.0173 -0.062187 -0.667878 1.67653 0.63653 0.63653 1.67653 1.67653 0 0 0 1.67653 1.67653 1.8009 0.618319 0.618319 1.8009 1.8009 0 0 0 1.8009 1.8009 0.5 0.454639 0.516609 0 0.5 -0.0913515 -0.0913515 1.83007 1.73872 1.73872 
0.941 2 1 1 0 4.138018 -0.532236 -10.536840 1.6400 1.7695 0.5962 0.6178 0.4604 -0.0177 -0.064778 -0.667009 1.63999 0.596213 0.596213 1.63999 1.63999 0 0 0 1.63999 1.63999 1.76954 0.617764 0.617764 1.76954 1.76954 0 0 0 1.76954 1.76954 0.5 0.460864 0.52249 0 0.5 -0.123695 -0.123695 1.82846 1.70477 1.70477 
0.951 2 1 1 0 4.236313 -0.364414 -9.275776 1.6079 1.7323 0.5846 0.6321 0.4666 -0.0181 -0.062187 -0.665918 1.60794 0.584641 0.584641 1.60794 1.60794 0 0 0 1.60794 1.60794 1.73232 0.632147 0.632147 5 -0.156243 -0.156243 1.82637 1.67013 1.67013 
0.961 2 1 1 0 2.872158 0.498672 -9.127133 1.5796 1.6988 0.5693 0.6091 0.4724 -0.0185 -0.059596 -0.664628 1.5796 0.569343 0.569343 1.5796 1.5796 0 0 0 1.5796 1.5796 1.69879 0.609098 0.609098 1.69879 1.69879 0 0 0 1.69879 1.69879 0.5 0.472913 0.533568 0 0.5 -0.184622 -0.184622 1.82381 1.63919 1.63919 
0.971 2 1 1 0 3.001621 0.390786 -7.189985 1.5457 1.6649 0.6023 0.5887 0.4784 -0.0189 -0.059596 -0.663188 1.5457 0.602323 0.602323 1.5457 1.5457 0 0 0 1.5457 1.5457 1.66489 0.588712 0.588712 1.66489 1.66489 0 0 0 1.66489 1.66489 0.5 0.478937 0.539185 0 0.5 -0.215518 -0.215518 1.82081 1.60529 1.60529 
0.981 2 1 1 0 3.032788 -0.453120 -7.611938 1.5111 1.6303 0.5592 0.5904 0.4845 -0.0192 -0.059596 -0.661428 1.51111 0.55917 0.55917 1.51111 1.51111 0 0 0 1.51111 1.51111 1.6303 0.590443 0.590443 1.6303 1.6303 0 0 0 1.6303 1.6303 0.5 0.484961 0.544843 0 0.5 -0.246637 -0.246637 1.81734 1.5707 1.5707 
0.991 2 1 1 0 3.644140 0.225361 -9.858359 1.4802 1.5994 0.5496 0.5885 0.4901 -0.0196 -0.059596 -0.658131 1.48018 0.549574 0.549574 1.48018 1.48018 0 0 0 1.48018 1.48018 1.59938 0.588532 0.588532 1.59938 1.59938 0 0 0 1.59938 1.59938 0.5 0.490584 0.549755 0 0.5 -0.273655 -0.273655 1.81344 1.53978 1.53978 
1.001 2 1 1 0 1.788506 1.045293 -8.007520 1.4489 1.5629 0.5640 0.6051 0.4959 -0.0199 -0.057005 -0.656537 1.44889 0.564013 0.564013 1.44889 1.44889 0 0 0 1.44889 1.44889 1.5629 0.605083 0.605083 1.5629 1.5629 0 0 0 1.5629 1.5629 0.5 0.496407 0.555128 0 0.5 -0.303204 -0.303204 1.8091 1.5059 1.5059 
1.011 2 1 1 0 3.761616 -0.517852 -9.573061 1.4121 1.5261 0.6009 0.5909 0.5019 -0.0203 -0.057005 -0.656713 1.41211 0.600934 0.600934 1.41211 1.41211 0 0 0 1.41211 1.41211 1.52612 0.590877 0.590877 1.52612 1.52612 0 0 0 1.52612 1.52612 0.5 0.502432 0.560945 0 0.5 -0.335196 -0.335196 1.80431 1.46912 1.46912 
1.021 2 1 1 0 4.301045 0.568198 -7.715029 1.3791 1.4931 0.5208 0.5727 0.5075 -0.0206 -0.057005 -0.655458 1.37907 0.520829 0.520829 1.37907 1.37907 0 0 0 1.37907 1.37907 1.49308 0.572692 0.572692 1.49308 1.49308 0 0 0 1.49308 1.49308 0.5 0.508054 0.566001 0 0.5 -0.363007 -0.363007 1.79908 1.43608 1.43608 
1.031 2 1 1 0 2.023457 -0.103091 -9.282969 1.3501 1.4589 0.5193 0.5596 0.5129 -0.0209 -0.054414 -0.654253 1.35007 0.519313 0.519313 1.35007 1.35007 0 0 0 1.35007 1.35007 1.45889 0.559625 0.559625 1.45889 1.45889 0 0 0 1.45889 1.45889 0.5 0.513476 0.570721 0 0.5 -0.388963 -0.388963 1.79344 1.40448 1.40448 
1.041 2 1 1 0 3.790386 -1.237090 -9.824795 1.3203 1.4239 0.5738 0.5710 0.5183 -0.0212 -0.051822 -0.652846 1.32029 0.573817 0.573817 1.32029 1.32029 0 0 0 1.32029 1.32029 1.42394 0.571029 0.571029 1.42394 1.42394 0 0 0 1.42394 1.42394 0.5 0.518898 0.575507 0 0.5 -0.415287 -0.415287 1.7874 1.37212 1.37212 
1.051 2 1 1 0 3.466728 -0.158232 -10.493686 1.2850 1.3887 0.5718 0.5502 0.5240 -0.0214 -0.051822 -0.651591 1.28502 0.571842 0.571842 1.28502 1.28502 0 0 0 1.28502 1.28502 1.38866 0.550233 0.550233 1.38866 1.38866 0 0 0 1.38866 1.38866 0.5 0.524521 0.580747 0 0.5 -0.444111 -0.444111 1.78095 1.33684 1.33684 
1.061 2 1 1 0 3.133481 -0.750405 -8.132187 1.2586 1.3519 0.5324 0.5562 0.5292 -0.0217 -0.046640 -0.650983 1.25859 0.532422 0.532422 1.25859 1.25859 0 0 0 1.25859 1.25859 1.35187 0.55617 0.55617 1.35187 1.35187 0 0 0 1.35187 1.35187 0.5 0.529742 0.58525 0 0.5 -0.468875 -0.468875 1.7741 1.30523 1.30523 
1.071 2 1 1 0 2.929697 -0.345234 -9.815205 1.2262 1.3195 0.4834 0.5658 0.5344 -0.0219 -0.046640 -0.649152 1.22622 0.483399 0.483399 1.22622 1.22622 0 0 0 1.22622 1.22622 1.3195 0.565767 0.565767 1.3195 1.3195 0 0 0 1.3195 1.3195 0.5 0.534963 0.589821 0 0.5 -0.494017 -0.494017 1.76687 1.27286 1.27286 
1.081 2 1 1 0 2.018662 -0.050347 -10.086118 1.1979 1.2860 0.4871 0.5319 0.5394 -0.0222 -0.044049 -0.647158 1.19789 0.487112 0.487112 1.19789 1.19789 0 0 0 1.19789 1.19789 1.28598 0.531894 0.531894 1.28598 1.28598 0 0 0 1.28598 1.28598 0.5 0.539983 0.594061 0 0.5 -0.517338 -0.517338 1.75927 1.24194 1.24194 
1.091 2 1 1 0 4.068491 0.292490 -8.793886 1.1644 1.2474 0.4936 0.5417 0.5448 -0.0224 -0.041458 -0.647366 1.16444 0.493648 0.493648 1.16444 1.16444 0 0 0 1.16444 1.16444 1.24735 0.541698 0.541698 1.24735 1.24735 0 0 0 1.24735 1.24735 0.5 0.545405 0.599161 0 0.5 -0.545388 -0.545388 1.75128 1.2059 1.2059 
1.101 2 1 1 0 3.080737 -0.287695 -7.156421 1.1347 1.2124 0.4616 0.5147 0.5498 -0.0226 -0.038867 -0.646182 1.13469 0.461637 0.461637 1.13469 1.13469 0 0 0 1.13469 1.13469 1.21242 0.514738 0.514738 1.21242 1.21242 0 0 0 1.21242 1.21242 0.5 0.550425 0.603521 0 0.5 -0.569366 -0.569366 1.74292 1.17355 1.17355 
1.111 2 1 1 0 3.634551 0.795957 -10.882075 1.1038 1.1815 0.4764 0.4956 0.5546 -0.0228 -0.038867 -0.644329 1.10376 0.476375 0.476375 1.10376 1.10376 0 0 0 1.10376 1.10376 1.1815 0.495552 0.495552 1.1815 1.1815 0 0 0 1.1815 1.1815 0.5 0.555244 0.607561 0 0.5 -0.591587 -0.591587 1.73422 1.14263 1.14263 
1.121 2 1 1 0 3.073545 0.045552 -8.846631 1.0773 1.1447 0.4597 0.5140 0.5595 -0.0230 -0.033685 -0.643057 1.0773 0.459677 0.459677 1.0773 1.0773 0 0 0 1.0773 1.0773 1.14466 0.513969 0.513969 1.14466 1.14466 0 0 0 1.14466 1.14466 0.5 0.560064 0.61167 0 0.5 -0.614182 -0.614182 1.72516 1.11098 1.11098 
1.131 2 1 1 0 4.068491 0.323657 -8.208906 1.0449 1.1123 0.4461 0.4969 0.5643 -0.0231 -0.033685 -0.643247 1.04495 0.446104 0.446104 1.04495 1.04495 0 0 0 1.04495 1.04495 1.11232 0.496854 0.496854 1.11232 1.11232 0 0 0 1.11232 1.11232 0.5 0.564883 0.61584 0 0.5 -0.637118 -0.637118 1.71575 1.07863 1.07863 
1.141 2 1 1 0 3.179033 -2.395063 -10.762202 1.0167 1.0788 0.4609 0.4764 0.5689 -0.0233 -0.031093 -0.642542 1.01665 0.460908 0.460908 1.01665 1.01665 0 0 0 1.01665 1.01665 1.07884 0.476399 0.476399 1.07884 1.07884 0 0 0 1.07884 1.07884 0.5 0.569502 0.619683 0 0.5 -0.658257 -0.658257 1.706 1.04775 1.04775 
1.151 2 1 1 0 2.016265 0.196592 -9.043222 0.9876 1.0446 0.4181 0.4729 0.5735 -0.0234 -0.028502 -0.641018 0.987577 0.418122 0.418122 0.987577 0.987577 0 0 0 0.987577 0.987577 1.04458 0.472916 0.472916 1.04458 1.04458 0 0 0 1.04458 1.04458 0.5 0.57412 0.623613 0 0.5 -0.67987 -0.67987 1.69595 1.01608 1.01608 
1.161 2 1 1 0 4.281865 0.793560 -9.462778 0.9625 1.0092 0.4066 0.4676 0.5779 -0.0235 -0.023320 -0.640317 0.962541 0.406554 0.406554 0.962541 0.962541 0 0 0 0.962541 0.962541 1.00918 0.467616 0.467616 1.00918 1.00918 0 0 0 1.00918 1.00918 0.5 0.578538 0.627223 0 0.5 -0.699728 -0.699728 1.68559 0.985861 0.985861 
1.171 2 1 1 0 2.646797 -1.493618 -8.976093 0.9320 0.9734 0.4317 0.4570 0.5825 -0.0236 -0.020729 -0.640417 0.931983 0.43166 0.43166 0.931983 0.931983 0 0 0 0.931983 0.931983 0.973441 0.456975 0.456975 0.973441 0.973441 0 0 0 0.973441 0.973441 0.5 0.583157 0.63131 0 0.5 -0.722204 -0.722204 1.67492 0.952712 0.952712 
1.181 2 1 1 0 3.821553 0.390786 -7.990737 0.9047 0.9462 0.3917 0.4319 0.5866 -0.0237 -0.020729 -0.639018 0.904709 0.391653 0.391653 0.904709 0.904709 0 0 0 0.904709 0.904709 0.946167 0.431893 0.431893 0.946167 0.946167 0 0 0 0.946167 0.946167 0.5 0.587173 0.634275 0 0.5 -0.738513 -0.738513 1.66395 0.925438 0.925438 
1.191 2 1 1 0 1.685415 -0.388389 -8.525371 0.8818 0.9129 0.3650 0.4160 0.5906 -0.0238 -0.015547 -0.636630 0.881796 0.364961 0.364961 0.881796 0.881796 0 0 0 0.881796 0.881796 0.91289 0.416011 0.416011 0.91289 0.91289 0 0 0 0.91289 0.91289 0.5 0.591189 0.637343 0 0.5 -0.755386 -0.755386 1.65273 0.897343 0.897343 
1.201 2 1 1 0 2.402256 -0.484287 -11.409516 0.8581 0.8788 0.3915 0.4269 0.5946 -0.0238 -0.010364 -0.634352 0.858087 0.391542 0.391542 0.858087 0.858087 0 0 0 0.858087 0.858087 0.878816 0.426938 0.426938 0.878816 0.878816 0 0 0 0.878816 0.878816 0.5 0.595205 0.64051 0 0.5 -0.772805 -0.772805 1.64126 0.868451 0.868451 
1.211 2 1 1 0 3.104712 0.455518 -7.293076 0.8285 0.8492 0.4093 0.4225 0.5986 -0.0239 -0.010364 -0.634549 0.828457 0.409264 0.409264 0.828457 0.828457 0 0 0 0.828457 0.828457 0.849186 0.42254 0.42254 0.849186 0.849186 0 0 0 0.849186 0.849186 0.5 0.599221 0.643763 0 0.5 -0.790698 -0.790698 1.62952 0.838822 0.838822 
1.221 2 1 1 0 4.358584 -0.110283 -9.697729 0.8029 0.8185 0.3432 0.3993 0.6024 -0.0239 -0.007773 -0.634627 0.802908 0.343244 0.343244 0.802908 0.802908 0 0 0 0.802908 0.802908 0.818454 0.399311 0.399311 0.818454 0.818454 0 0 0 0.818454 0.818454 0.5 0.603037 0.646698 0 0.5 -0.80684 -0.80684 1.61752 0.810681 0.810681 
1.231 2 1 1 0 2.733105 0.311670 -9.064799 0.7766 0.7870 0.3619 0.3791 0.6062 -0.0239 -0.005182 -0.633582 0.776612 0.361864 0.361864 0.776612 0.776612 0 0 0 0.776612 0.776612 0.786976 0.379084 0.379084 0.786976 0.786976 0 0 0 0.786976 0.786976 0.5 0.606852 0.649725 0 0.5 -0.823487 -0.823487 1.60528 0.781794 0.781794 
1.241 2 1 1 0 2.594053 1.184346 -7.472886 0.7540 0.7591 0.3605 0.3747 0.6097 -0.0240 -0.002591 -0.632396 0.753965 0.360457 0.360457 0.753965 0.753965 0 0 0 0.753965 0.753965 0.759147 0.374678 0.374678 0.759147 0.759147 0 0 0 0.759147 0.759147 0.5 0.610266 0.652048 0 0.5 -0.836263 -0.836263 1.59282 0.756556 0.756556 
1.251 2 1 1 0 2.167305 -0.064731 -9.522715 0.7262 0.7262 0.3308 0.3584 0.6135 -0.0240 -0.000000 -0.632058 0.726169 0.330793 0.330793 0.726169 0.726169 0 0 0 0.726169 0.726169 0.726169 0.358406 0.358406 0.726169 0.726169 0 0 0 0.726169 0.726169 0.5 0.614081 0.655266 0 0.5 -0.853963 -0.853963 1.58013 0.726169 0.726169 
1.261 2 1 1 0 3.207803 0.606558 -7.240332 0.7017 0.7017 0.3166 0.3456 0.6167 -0.0240 -0.000000 -0.631700 0.701662 0.316582 0.316582 0.701662 0.701662 0 0 0 0.701662 0.701662 0.701662 0.34557 0.34557 0.701662 0.701662 0 0 0 0.701662 0.701662 0.5 0.617294 0.657377 0 0.5 -0.865575 -0.865575 1.56724 0.701662 0.701662 
1.271 2 1 1 0 1.618286 -0.141450 -8.913759 0.6768 0.6716 0.3028 0.3484 0.6201 -0.0240 0.002591 -0.630287 0.676814 0.30277 0.30277 0.676814 0.676814 0 0 0 0.676814 0.676814 0.671632 0.348443 0.348443 0.671632 0.671632 0 0 0 0.671632 0.671632 0.5 0.620708 0.659984 0 0.5 -0.879912 -0.879912 1.55414 0.674223 0.674223 
1.281 2 1 1 0 2.145727 -0.395581 -8.323984 0.6557 0.6453 0.3262 0.3433 0.6231 -0.0239 0.005182 -0.629209 0.655652 0.326181 0.326181 0.655652 0.655652 0 0 0 0.655652 0.655652 0.645288 0.343256 0.343256 0.645288 0.645288 0 0 0 0.645288 0.645288 0.5 0.62372 0.661885 0 0.5 -0.89037 -0.89037 1.54084 0.65047 0.65047 
1.291 2 1 1 0 3.087929 -0.668892 -8.899375 0.6294 0.6138 0.3108 0.3528 0.6265 -0.0239 0.007773 -0.629356 0.629383 0.310844 0.310844 0.629383 0.629383 0 0 0 0.629383 0.629383 0.613836 0.352805 0.352805 0.613836 0.613836 0 0 0 0.613836 0.613836 0.5 0.627133 0.66468 0 0.5 -0.905739 -0.905739 1.52735 0.621609 0.621609 
1.301 2 1 1 0 3.843130 -0.779175 -8.525371 0.6068 0.5861 0.2757 0.2848 0.6295 -0.0239 0.010364 -0.629203 0.60684 0.275659 0.275659 0.60684 0.60684 0 0 0 0.60684 0.60684 0.586111 0.284798 0.284798 0.586111 0.586111 0 0 0 0.586111 0.586111 0.5 0.630146 0.666762 0 0.5 -0.917193 -0.917193 1.51367 0.596476 0.596476 
1.311 2 1 1 0 2.989634 -0.582583 -10.522456 0.5832 0.5625 0.2829 0.3122 0.6323 -0.0239 0.010364 -0.627449 0.583196 0.282867 0.282867 0.583196 0.583196 0 0 0 0.583196 0.583196 0.562467 0.312153 0.312153 0.562467 0.562467 0 0 0 0.562467 0.562467 0.5 0.632957 0.668544 0 0.5 -0.926993 -0.926993 1.49982 0.572831 0.572831 
1.321 2 1 1 0 3.615371 -0.450723 -9.187070 0.5593 0.5334 0.2550 0.2907 0.6354 -0.0238 0.012956 -0.626078 0.559263 0.25502 0.25502 0.559263 0.559263 0 0 0 0.559263 0.559263 0.533352 0.290698 0.290698 0.533352 0.533352 0 0 0 0.533352 0.533352 0.5 0.635969 0.670818 0 0.5 -0.939499 -0.939499 1.48581 0.546307 0.546307 
1.331 2 1 1 0 3.159853 0.023975 -9.556279 0.5343 0.5084 0.2645 0.2810 0.6382 -0.0238 0.012956 -0.625152 0.534261 0.264487 0.264487 0.534261 0.534261 0 0 0 0.534261 0.534261 0.50835 0.28102 0.28102 0.50835 0.50835 0 0 0 0.50835 0.50835 0.5 0.63878 0.672787 0 0.5 -0.950327 -0.950327 1.47163 0.521306 0.521306 
1.341 2 1 1 0 3.644140 0.719238 -8.995274 0.5134 0.4823 0.2641 0.2821 0.6408 -0.0238 0.015547 -0.624013 0.513399 0.264118 0.264118 0.513399 0.513399 0 0 0 0.513399 0.513399 0.482305 0.282097 0.282097 0.482305 0.482305 0 0 0 0.482305 0.482305 0.5 0.641391 0.674446 0 0.5 -0.959452 -0.959452 1.4573 0.497852 0.497852 
1.351 2 1 1 0 3.116699 0.258926 -7.504053 0.4867 0.4608 0.2555 0.2677 0.6434 -0.0237 0.012956 -0.624112 0.486702 0..5 0.644001 0.676197 0 0.5 -0.969082 -0.969082 1.44283 0.473746 0.473746 
1.361 2 1 1 0 3.411587 -0.225361 -9.666562 0.4693 0.4331 0.2283 0.2453 0.6458 -0.0237 0.018138 -0.624278 0.469342 0.228282 0.228282 0.469342 0.469342 0 0 0 0.469342 0.469342 0.433066 0.245254 0.245254 0.433066 0.433066 0 0 0 0.433066 0.433066 0.5 0.646411 0.677638 0 0.5 -0.977008 -0.977008 1.42821 0.451204 0.451204 
1.371 2 1 1 0 2.522129 -0.608955 -8.868208 0.4461 0.4099 0.2248 0.2187 0.6482 -0.0236 0.018138 -0.622393 0.446138 0.224816 0.224816 0.446138 0.446138 0 0 0 0.446138 0.446138 0.409862 0.218725 0.218725 0.409862 0.409862 0 0 0 0.409862 0.409862 0.5 0.648821 0.679177 0 0.5 -0.985473 -0.985473 1.41347 0.428 0.428 
1.381 2 1 1 0 2.970454 -0.033564 -9.597035 0.4271 0.3856 0.2168 0.2479 0.6504 -0.0236 0.020729 -0.620738 0.427083 0.216801 0.216801 0.427083 0.427083 0 0 0 0.427083 0.427083 0.385626 0.247884 0.247884 0.385626 0.385626 0 0 0 0.385626 0.385626 0.5 0.65103 0.680411 0 0.5 -0.992263 -0.992263 1.39862 0.406354 0.406354 
1.391 2 1 1 0 2.181690 -0.656904 -9.258994 0.4026 0.3612 0.2176 0.2395 0.6528 -0.0236 0.020729 -0.620410 0.402609 0.217564 0.217564 0.402609 0.402609 0 0 0 0.402609 0.402609 0.361152 0.239454 0.239454 0.361152 0.361152 0 0 0 0.361152 0.361152 0.5 0.653439 0.682139 0 0.5 -1.00176 -1.00176 1.38364 0.381881 0.381881 
1.401 2 1 1 0 3.521870 0.165425 -7.676670 0.3820 0.3405 0.2060 0.2009 0.6548 -0.0235 0.020729 -0.620057 0.381975 0.205987 0.205987 0.381975 0.381975 0 0 0 0.381975 0.381975 0.340517 0.200903 0.200903 0.340517 0.340517 0 0 0 0.340517 0.340517 0.5 0.655447 0.683146 0 0.5 -1.0073 -1.0073 1.36855 0.361246 0.361246 
1.411 2 1 1 0 3.636948 0.498672 -9.412432 0.3611 0.3144 0.1852 0.2085 0.6570 -0.0235 0.023320 -0.618497 0.361082 0.18518 0.18518 0.361082 0.361082 0 0 0 0.361082 0.361082 0.314442 0.208546 0.208546 0.314442 0.314442 0 0 0 0.314442 0.314442 0.5 0.657656 0.684655 0 0.5 -1.0156 -1.0156 1.35336 0.337762 0.337762 
1.421 2 1 1 0 1.249077 -0.836714 -9.021646 0.3440 0.2922 0.1770 0.1973 0.6588 -0.0234 0.025911 -0.616785 0.343996 0.176995 0.176995 0.343996 0.343996 0 0 0 0.343996 0.343996 0.292173 0.197277 0.197277 0.292173 0.292173 0 0 0 0.292173 0.292173 0.5 0.659464 0.685456 0 0.5 -1.02001 -1.02001 1.33809 0.318084 0.318084 
1.431 2 1 1 0 4.559970 0.954189 -9.112749 0.3215 0.2697 0.1976 0.1966 0.6609 -0.0234 0.025911 -0.616827 0.32154 0.197646 0.197646 0.32154 0.32154 0 0 0 0.32154 0.32154 0.269718 0.196618 0.196618 0.269718 0.269718 0 0 0 0.269718 0.269718 0.5 0.661472 0.686744 0 0.5 -1.02709 -1.02709 1.32272 0.295629 0.295629 
1.441 2 1 1 0 3.473921 -0.726431 -8.808271 0.2981 0.2515 0.1766 0.1879 0.6627 -0.0233 0.023320 -0.617505 0.298141 0.176554 0.176554 0.298141 0.298141 0 0 0 0.298141 0.298141 0.2515 0.18792 0.18792 0.2515 0.2515 0 0 0 0.2515 0.2515 0.5 0.663279 0.687718 0 0.5 -1.03245 -1.03245 1.30727 0.27482 0.27482 
1.451 2 1 1 0 2.699541 0.846304 -7.693452 0.2790 0.2323 0.1426 0.1592 0.6643 -0.0233 0.023320 -0.616167 0.278981 0.142555 0.142555 0.278981 0.278981 0 0 0 0.278981 0.278981 0.232341 0.159235 0.159235 0.232341 0.232341 0 0 0 0.232341 0.232341 0.5 0.664885 0.688377 0 0.5 -1.03607 -1.03607 1.29173 0.255661 0.255661 
1.461 2 1 1 0 2.057021 -0.378799 -8.925747 0.2644 0.2074 0.1457 0.1770 0.6659 -0.0232 0.028502 -0.615716 0.264396 0.145716 0.145716 0.264396 0.264396 0 0 0 0.264396 0.264396 0.207391 0.176959 0.176959 0.207391 0.207391 0 0 0 0.207391 0.207391 0.5 0.666492 0.689137 0 0.5 -1.04025 -1.04025 1.27615 0.235893 0.235893 
1.471 2 1 1 0 3.939028 -0.177412 -8.793886 0.2441 0.1871 0.1587 0.1728 0.6675 -0.0232 0.028502 -0.614857 0.244092 0.158685 0.158685 0.244092 0.244092 0 0 0 0.244092 0.244092 0.187087 0.17276 0.17276 0.187087 0.187087 0 0 0 0.187087 0.187087 0.5 0.668098 0.689983 0 0.5 -1.04491 -1.04491 1.2605 0.215589 0.215589 
1.481 2 1 1 0 2.687554 -1.124409 -8.762719 0.2281 0.1659 0.1197 0.1475 0.6689 -0.0232 0.031093 -0.614618 0.228056 0.11973 0.11973 0.228056 0.228056 0 0 0 0.228056 0.228056 0.165869 0.147498 0.147498 0.165869 0.165869 0 0 0 0.165869 0.165869 0.5 0.669504 0.690514 0 0.5 -1.04783 -1.04783 1.24479 0.196963 0.196963 
1.491 2 1 1 0 3.898271 0.556211 -9.719306 0.2063 0.1493 0.1360 0.1275 0.6703 -0.0231 0.028502 -0.613255 0.206301 0.136017 0.136017 0.206301 0.206301 0 0 0 0.206301 0.206301 0.149297 0.127456 0.127456 0.149297 0.149297 0 0 0 0.149297 0.149297 0.5 0.67091 0.691134 0 0.5 -1.05124 -1.05124 1.22904 0.177799 0.177799 
1.501 2 1 1 0 2.203267 -0.369209 -8.705180 0.1936 0.1314 0.0961 0.1490 0.6713 -0.0231 0.031093 -0.612850 0.193603 0.0961101 0.0961101 0.193603 0.193603 0 0 0 0.193603 0.193603 0.131416 0.14903 0.14903 0.131416 0.131416 -0 -0 0 0.131416 0.131416 0.5 0.671914 0.691043 0 0.5 -1.05074 -1.05074 1.21325 0.16251 0.16251 
1.511 2 1 1 0 3.356445 -0.285298 -9.949463 0.1756 0.1134 0.1305 0.1139 0.6725 -0.0230 0.031093 -0.611351 0.175577 0.130477 0.130477 0.175577 0.175577 0 0 0 0.175577 0.175577 0.11339 0.113873 0.113873 0.11339 0.11339 -0 -0 0 0.11339 0.11339 0.5 0.673119 0.691445 0 0.5 -1.05295 -1.05295 1.19743 0.144484 0.144484 
1.521 2 1 1 0 3.943823 0.323657 -8.415088 0.1571 0.0949 0.1085 0.1132 0.6737 -0.0230 0.031093 -0.611758 0.157052 0.108465 0.108465 0.157052 0.157052 0 0 0 0.157052 0.157052 0.0948649 0.113189 0.113189 0.0948649 0.0948649 -0 -0 0 0.0948649 0.0948649 0.5 0.674323 0.691932 0 0.5 -1.05563 -1.05563 1.18158 0.125958 0.125958 
1.531 2 1 1 0 2.119355 -0.448325 -8.036289 0.1381 0.0759 0.0691 0.1178 0.6749 -0.0230 0.031093 -0.610919 0.138093 0.0691011 0.0691011 0.138093 0.138093 0 0 0 0.138093 0.138093 0.0759062 0.117755 0.117755 0.0759062 0.0759062 -0 -0 0 0.0759062 0.0759062 0.5 0.675528 0.69249 0 0.5 -1.05869 -1.05869 1.16569 0.107 0.107 
1.541 2 1 1 0 3.267739 -0.206182 -10.040566 0.1230 0.0609 0.0951 0.0788 0.6757 -0.0229 0.031093 -0.609322 0.12304 0.095103 0.095103 0.12304 0.12304 0 0 0 0.12304 0.12304 0.0608535 0.0787949 0.0787949 0.0608535 0.0608535 -0 -0 0 0.0608535 0.0608535 0.5 0.676331 0.692336 0 0.5 -1.05785 -1.05785 1.14979 0.091947 0.091947 
1.551 2 1 1 0 3.907861 0.951792 -8.180137 0.1027 0.0457 0.0916 0.0890 0.6767 -0.0229 0.028502 -0.610072 0.102687 0.0916392 0.0916392 0.102687 0.102687 0 0 0 0.102687 0.102687 0.045682 0.0889927 0.0889927 0.045682 0.045682 -0 -0 0 0.045682 0.045682 0.5 0.677336 0.692675 0 0.5 -1.05971 -1.05971 1.13389 0.0741843 0.0741843 
1.561 2 1 1 0 2.742695 0.021577 -8.297612 0.0915 0.0293 0.0740 0.0923 0.6773 -0.0229 0.031093 -0.609614 0.0914711 0.0739764 0.0739764 0.0914711 0.0914711 0 0 0 0.0914711 0.0914711 0.0292841 0.092292 0.092292 0.0292841 0.0292841 -0 -0 0 0.0292841 0.0292841 0.5 0.677938 0.692293 0 0.5 -1.05761 -1.05761 1.11799 0.0603776 0.0603776 
1.571 2 1 1 0 2.721118 -0.803149 -10.229965 0.0750 0.0128 0.0581 0.0676 0.6781 -0.0229 0.031093 -0.607660 0.0749748 0.0581088 0.0581088 0.0749748 0.0749748 0 0 0 0.0749748 0.0749748 0.0127878 0.067641 0.067641 0.0127878 0.0127878 -0 -0 0 0.0127878 0.0127878 0.5 0.678741 0.692402 0 0.5 -1.05821 -1.05821 1.10209 0.0438813 0.0438813 
1.581 2 1 1 0 3.646538 0.736021 -8.515781 0.0624 0.0002 0.0516 0.0450 0.6785 -0.0229 0.031093 -0.606912 0.0623907 0.0515928 0.0515928 0.0623907 0.0623907 0 0 0 0.0623907 0.0623907 0.000203738 0.0449785 0.0449785 0.000203738 0.000203738 -0 -0 0 0.000203738 0.000203738 0.5 0.679143 0.691807 0 0.5 -1.05494 -1.05494 1.08623 0.0312972 0.0312972 
1.591 2 1 1 0 3.246162 0.011987 -9.644985 0.0493 -0.0129 0.0435 0.0555 0.6789 -0.0228 0.031093 -0.606419 0.0493205 0.0434701 0.0434701 0.0493205 0.0493205 0 0 0 0.0493205 0.0493205 -0.0128665 0.0555276 0.0555276 -0.0128665 -0.0128665 -0 -0 0 -0.0128665 -0.0128665 0.5 0.679544 0.691306 0 0.5 -1.05218 -1.05218 1.07041 0.018227 0.018227 
1.601 2 1 1 0 3.934233 0.278105 -8.256855 0.0358 -0.0264 0.0526 0.0442 0.6793 -0.0228 0.031093 -0.606812 0.0358212 0.0525752 0.0525752 0.0358212 0.0358212 -0 -0 0 0.0358212 0.0358212 -0.0263657 0.0442154 0.0442154 -0.0263657 -0.0263657 -0 -0 0 -0.0263657 -0.0263657 0.5 0.679946 0.690887 0 0.5 -1.04988 -1.04988 1.0546 0.00472772 0.00472772 
1.611 2 1 1 0 3.572217 -0.369209 -9.160698 0.0171 -0.0399 0.0429 0.0349 0.6799 -0.0228 0.028502 -0.606781 5 0.0171025 -0.0399022 0.034891 0.034891 -0.0399022 -0.0399022 -0 -0 0 -0.0399022 -0.0399022 0.5 0.680548 0.690951 0 0.5 -1.05023 -1.05023 1.03883 -0.0113999 -0.0113999 
1.621 2 1 1 0 3.469126 0.052744 -8.815464 0.0076 -0.0546 0.0384 0.0272 0.6801 -0.0228 0.031093 -0.606367 0.00756322 0.0383751 0.0383751 0.00756322 0.00756322 -0 -0 0 0.00756322 0.00756322 -0.0546237 0.0272374 0.0272374 -0.0546237 -0.0546237 -0 -0 0 -0.0546237 -0.0546237 0.5 0.680749 0.690296 0 0.5 -1.04663 -1.04663 1.0231 -0.0235302 -0.0235302 
1.631 2 1 1 0 2.649194 0.131860 -9.695332 -0.0028 -0.0650 0.0196 0.0272 0.6801 -0.0228 0.031093 -0.605032 -0.00280441 0.0196242 0.0196242 -0.00280441 -0.00280441 -0 -0 0 -0.00280441 -0.00280441 -0.0649913 0.0272374 0.0272374 -0.0649913 -0.0649913 -0 -0 0 -0.0649913 -0.0649913 0.5 0.680749 0.689331 0 0.5 -1.04132 -1.04132 1.00742 -0.0338979 -0.0338979 
1.641 2 1 1 0 3.179033 0.779175 -8.460639 -0.0132 -0.0806 0.0132 0.0289 0.6803 -0.0228 0.033685 -0.604387 -0.013183 0.0131828 0.0131828 -0.013183 -0.013183 -0 -0 0 -0.013183 -0.013183 -0.0805521 0.0289485 0.0289485 -0.0805521 -0.0805521 -0 -0 0 -0.0805521 -0.0805521 0.5 0.68095 0.688848 0 0.5 -1.03866 -1.03866 0.991795 -0.0468675 -0.0468675 
1.651 2 1 1 0 3.560229 0.170220 -9.139121 -0.0244 -0.0917 0.0099 0.0212 0.6803 -0.0228 0.033685 -0.604458 -0.0243573 0.00992504 0.00992504 -0.0243573 -0.0243573 -0 -0 0 -0.0243573 -0.0243573 -0.0917265 0.0211926 0.0211926 -0.0917265 -0.0917265 -0 -0 0 -0.0917265 -0.0917265 0.5 0.68095 0.68805 0 0.5 -1.03428 -1.03428 0.976233 -0.0580419 -0.0580419 
1.661 2 1 1 0 3.835938 -0.023975 -8.745937 -0.0359 -0.1033 0.0080 0.0139 0.6803 -0.0228 0.033685 -0.604381 -0.03591 0.00795835 0.00795835 -0.03591 -0.03591 -0 -0 0 -0.03591 -0.03591 -0.103279 0.0138725 0.0138725 -0.103279 -0.103279 -0 -0 0 -0.103279 -0.103279 0.5 0.68095 0.687332 0 0.5 -1.03033 -1.03033 0.960734 -0.0695946 -0.0695946 
1.671 2 1 1 0 3.840732 -0.330850 -8.427075 -0.0473 -0.1199 0.0066 0.0136 0.6805 -0.0228 0.036276 -0.604702 -0.0473466 0.00664193 0.00664193 -0.0473466 -0.0473466 -0 -0 0 -0.0473466 -0.0473466 -0.119898 0.0135535 0.0135535 -0.119898 -0.119898 -0 -0 0 -0.119898 -0.119898 0.5 0.681151 0.687069 0 0.5 -1.02888 -1.02888 0.945259 -0.0836223 -0.0836223 
1.681 2 1 1 0 3.986977 -0.501069 -9.057607 -0.0595 -0.1320 0.0057 0.0136 0.6805 -0.0228 0.036276 -0.605012 -0.0594815 0.00569941 0.00569941 -0.0594815 -0.0594815 -0 -0 0 -0.0594815 -0.0594815 -0.132033 0.0135535 0.0135535 -0.132033 -0.132033 -0 -0 0 -0.132033 -0.132033 0.5 0.681151 0.686471 0 0.5 -1.02559 -1.02559 0.929836 -0.0957572 -0.0957572 
1.691 2 1 1 0 4.327417 0.357222 -8.405498 -0.0719 -0.1444 0.0050 0.0136 0.6805 -0.0228 0.036276 -0.605625 -0.0718985 0.00499138 0.00499138 -0.0718985 -0.0718985 -0 -0 0 -0.0718985 -0.0718985 -0.14445 0.0135535 0.0135535 -0.14445 -0.14445 -0 -0 0 -0.14445 -0.14445 0.5 0.681151 0.685933 0 0.5 -1.02263 -1.02263 0.914459 -0.108174 -0.108174 
1.701 2 1 1 0 4.140415 0.445928 -8.956914 -0.0846 -0.1571 0.0044 0.0102 0.6805 -0.0228 0.036276 -0.605933 -0.0845723 0.00443956 0.00443956 -0.0845723 -0.0845723 -0 -0 0 -0.0845723 -0.0845723 -0.157124 0.0102149 0.0102149 -0.157124 -0.157124 -0 -0 0 -0.157124 -0.157124 0.5 0.681151 0.68545 0 0.5 -1.01997 -1.01997 0.899125 -0.120848 -0.120848 
1.711 2 1 1 0 4.202749 -0.026372 -8.530166 -0.0975 -0.1700 0.0040 -0.0116 0.6805 -0.0228 0.036276 -0.606250 -0.0974788 0.00399755 0.00399755 -0.0974788 -0.0974788 -0 -0 0 -0.0974788 -0.0974788 -0.17003 -0.0115505 -0.0115505 -0.17003 -0.17003 -0 -0 0 -0.17003 -0.17003 0.5 0.681151 0.685015 0 0.5 -1.01758 -1.01758 0.883828 -0.133754 -0.133754 
1.721 2 1 1 0 4.320224 -0.448325 -8.628462 -0.1106 -0.1831 0.0036 -0.0116 0.6805 -0.0228 0.036276 -0.606843 -0.110593 0.00363566 0.00363566 -0.110593 -0.110593 -0 -0 0 -0.110593 -0.110593 -0.183145 -0.0115505 -0.0115505 -0.183145 -0.183145 -0 -0 0 -0.183145 -0.183145 0.5 0.681151 0.684624 0 0.5 -1.01543 -1.01543 0.868565 -0.146869 -0.146869 
1.731 2 1 1 0 4.022939 -0.366812 -8.657231 -0.1239 -0.1964 0.0033 -0.0116 0.6805 -0.0228 0.036276 -0.607102 -0.123895 0.00333399 0.00333399 -0.123895 -0.123895 -0 -0 0 -0.123895 -0.123895 -0.196447 -0.0115505 -0.0115505 -0.196447 -0.196447 -0 -0 0 -0.196447 -0.196447 0.5 0.681151 0.684273 0 0.5 -1.0135 -1.0135 0.853333 -0.160171 -0.160171 
1.741 2 1 1 0 4.003760 0.151040 -8.616474 -0.1374 -0.2099 0.0031 -0.0116 0.6805 -0.0228 0.036276 -0.607451 -0.137362 0.00307836 0.00307836 -0.137362 -0.137362 -0 -0 0 -0.137362 -0.137362 -0.209914 -0.0115505 -0.0115505 -0.209914 -0.209914 -0 -0 0 -0.209914 -0.209914 0.5 0.681151 0.683958 0 0.5 -1.01177 -1.01177 0.838129 -0.173638 -0.173638 
1.751 2 1 1 0 4.140415 0.407568 -8.868208 -0.1510 -0.2235 0.0029 -0.0093 0.6805 -0.0228 0.036276 -0.607702 -0.150978 0.00285919 0.00285919 -0.150978 -0.150978 -0 -0 0 -0.150978 -0.150978 -0.223529 -0.00934903 -0.00934903 -0.223529 -0.223529 -0 -0 0 -0.223529 -0.223529 0.5 0.681151 0.683673 0 0.5 -1.0102 -1.0102 0.822949 -0.187254 -0.187254 
1.761 2 1 1 0 3.915054 -0.004795 -8.549345 -0.1647 -0.2373 0.0027 -0.0076 0.6805 -0.0228 0.036276 -0.607904 -0.164731 0.00266919 0.00266919 -0.164731 -0.164731 -0 -0 0 -0.164731 -0.164731 -0.237282 -0.00758399 -0.00758399 -0.237282 -0.237282 -0 -0 0 -0.237282 -0.237282 0.5 0.681151 0.683418 0 0.5 -1.0088 -1.0088 0.807791 -0.201007 -0.201007 
1.771 2 1 1 0 4.087671 -0.242144 -8.707578 -0.1786 -0.2512 0.0025 -0.0064 0.6805 -0.0228 0.036276 -0.608131 -0.178603 0.00250283 0.00250283 -0.178603 -0.178603 -0 -0 0 -0.178603 -0.178603 -0.251154 -0.00637915 -0.00637915 -0.251154 -0.251154 -0 -0 0 -0.251154 -0.251154 0.5 0.681151 0.683188 0 0.5 -1.00753 -1.00753 0.792654 -0.214879 -0.214879 
1.781 2 1 1 0 4.114043 -0.222964 -8.616474 -0.1926 -0.2651 0.0024 -0.0055 0.6805 -0.0228 0.036276 -0.608448 -0.192587 0.00235601 0.00235601 -0.192587 -0.192587 -0 -0 0 -0.192587 -0.192587 -0.265138 -0.0055048 -0.0055048 -0.265138 -0.265138 -0 -0 0 -0.265138 -0.265138 0.5 0.681151 0.682981 0 0.5 -1.0064 -1.0064 0.777534 -0.228862 -0.228862 
1.791 2 1 1 0 4.018145 0.107886 -8.702783 -0.2067 -0.2792 0.0022 -0.0048 0.6805 -0.0228 0.036276 -0.608760 -0.206668 0.00222547 0.00222547 -0.206668 -0.206668 -0 -0 0 -0.206668 -0.206668 -0.27922 -0.00484128 -0.00484128 -0.27922 -0.27922 -0 -0 0 -0.27922 -0.27922 0.5 0.681151 0.682796 0 0.5 -1.00538 -1.00538 0.762431 -0.242944 -0.242944 
1.801 2 1 1 0 4.114043 0.266118 -8.748335 -0.2208 -0.2934 0.0021 -0.0043 0.6805 -0.0228 0.036276 -0.609043 -0.220842 0.00210863 0.00210863 -0.220842 -0.220842 -0 -0 0 -0.220842 -0.220842 -0.293393 -0.00432048 -0.00432048 -0.293393 -0.293393 -0 -0 0 -0.293393 -0.293393 0.5 0.681151 0.682629 0 0.5 -1.00446 -1.00446 0.747343 -0.257118 -0.257118 
1.811 2 1 1 0 4.030132 0.007192 -8.642846 -0.2351 -0.3076 0.0020 -0.0039 0.6805 -0.0228 0.036276 -0.609329 -0.235093 0.00200347 0.00200347 -0.235093 -0.235093 -0 -0 0 -0.235093 -0.235093 -0.307644 -0.00390099 -0.00390099 -0.307644 -0.307644 -0 -0 0 -0.307644 -0.307644 0.5 0.681151 0.682479 0 0.5 -1.00364 -1.00364 0.732267 -0.271368 -0.271368 
1.821 2 1 1 0 4.075684 -0.234951 -8.738745 -0.2494 -0.3220 0.0019 -0.0036 0.6805 -0.0228 0.036276 -0.609589 -0.249414 0.00190825 0.00190825 -0.249414 -0.249414 -0 -0 0 -0.249414 -0.249414 -0.321966 -0.00355551 -0.00355551 -0.321966 -0.321966 -0 -0 0 -0.321966 -0.321966 0.5 0.681151 0.682344 0 0.5 -1.00289 -1.00289 0.717203 -0.28569 -0.28569 
1.831 2 1 1 0 4.018145 -0.189399 -8.688398 -0.2638 -0.3364 0.0018 -0.0033 0.6805 -0.0228 0.036276 -0.609831 -0.263799 0.00182169 0.00182169 -0.263799 -0.263799 -0 -0 0 -0.263799 -0.263799 -0.33635 -0.00326635 -0.00326635 -0.33635 -0.33635 -0 -0 0 -0.33635 -0.33635 0.5 0.681151 0.682223 0 0.5 -1.00222 -1.00222 0.70215 -0.300074 -0.300074 
1.841 2 1 1 0 4.027734 0.098296 -8.741142 -0.2782 -0.3508 0.0017 -0.0030 0.6805 -0.0228 0.036276 -0.610058 -0.278239 0.00174265 0.00174265 -0.278239 -0.278239 -0 -0 0 -0.278239 -0.278239 -0.350791 -0.00302068 -0.00302068 -0.350791 -0.350791 -0 -0 0 -0.350791 -0.350791 0.5 0.681151 0.682113 0 0.5 -1.00162 -1.00162 0.687106 -0.314515 -0.314515 
1.851 2 1 1 0 4.025337 0.194194 -8.767514 -0.2927 -0.3653 0.0017 -0.0028 0.6805 -0.0228 0.036276 -0.610293 -0.292736 0.00167018 0.00167018 -0.292736 -0.292736 -0 -0 0 -0.292736 -0.292736 -0.365287 -0.00280938 -0.00280938 -0.365287 -0.365287 -0 -0 0 -0.365287 -0.365287 0.5 0.681151 0.682015 0 0.5 -1.00108 -1.00108 0.672071 -0.329011 -0.329011 
1.861 2 1 1 0 3.977388 0.016782 -8.705180 -0.3073 -0.3798 0.0016 -0.0026 0.6805 -0.0228 0.036276 -0.610493 -0.307278 0.0016035 0.0016035 -0.307278 -0.307278 -0 -0 0 -0.307278 -0.307278 -0.379829 -0.00262571 -0.00262571 -0.379829 -0.379829 -0 -0 0 -0.379829 -0.379829 0.5 0.681151 0.681927 0 0.5 -1.0006 -1.0006 0.657043 -0.343554 -0.343554 
1.871 2 1 1 0 4.032529 -0.194194 -8.676411 -0.3219 -0.3944 0.0015 -0.0025 0.6805 -0.0228 0.036276 -0.610716 -0.321863 0.00154194 0.00154194 -0.321863 -0.321863 -0 -0 0 -0.321863 -0.321863 -0.394415 -0.00246458 -0.00246458 -0.394415 -0.394415 -0 -0 0 -0.394415 -0.394415 0.5 0.681151 0.681848 0 0.5 -1.00016 -1.00016 0.642023 -0.358139 -0.358139 
1.881 2 1 1 0 4.027734 -0.151040 -8.650039 -0.3365 -0.4090 0.0015 -0.0023 0.6805 -0.0228 0.036276 -0.610933 -0.336486 0.00148493 0.00148493 -0.336486 -0.336486 -0 -0 0 -0.336486 -0.336486 -0.409037 -0.00232209 -0.00232209 -0.409037 -0.409037 -0 -0 0 -0.409037 -0.409037 0.5 0.681151 0.681776 0 0.5 -0.99977 -0.99977 0.627008 -0.372762 -0.372762 
1.891 2 1 1 0 4.092466 0.045552 -8.683603 -0.3511 -0.4237 0.0014 -0.0022 0.6805 -0.0228 0.036276 -0.611119 -0.351141 0.00143198 0.00143198 -0.351141 -0.351141 -0 -0 0 -0.351141 -0.351141 -0.423692 -0.00219517 -0.00219517 -0.423692 -0.423692 -0 -0 0 -0.423692 -0.423692 0.5 0.681151 0.681712 0 0.5 -0.999416 -0.999416 0.611999 -0.387416 -0.387416 
1.901 2 1 1 0 3.998965 0.170220 -8.733950 -0.3658 -0.4384 0.0014 -0.0021 0.6805 -0.0228 0.036276 -0.611366 -0.365827 0.00138268 0.00138268 -0.365827 -0.365827 -0 -0 0 -0.365827 -0.365827 -0.438379 -0.0020814 -0.0020814 -0.438379 -0.438379 -0 -0 0 -0.438379 -0.438379 0.5 0.681151 0.681654 0 0.5 -0.999098 -0.999098 0.596995 -0.402103 -0.402103 
1.911 2 1 1 0 4.058901 0.055142 -8.623667 -0.3805 -0.4531 0.0013 -0.0020 0.6805 -0.0228 0.036276 -0.611605 -0.380541 0.00133666 0.00133666 -0.380541 -0.380541 -0 -0 0 -0.380541 -0.380541 -0.453092 -0.00197885 -0.00197885 -0.453092 -0.453092 -0 -0 0 -0.453092 -0.453092 0.5 0.681151 0.681602 0 0.5 -0.998812 -0.998812 0.581996 -0.416816 -0.416816 
1.921 2 1 1 0 4.114043 -0.165425 -8.697988 -0.3905 -0.4682 -0.0013 -0.0019 0.6803 -0.0228 0.038867 -0.611867 -0.390486 -0.00129521 -0.00129521 -0.390486 -0.390486 -0 -0 0 -0.390486 -0.390486 -0.46822 -0.00188593 -0.00188593 -0.46822 -0.46822 -0 -0 0 -0.46822 -0.46822 0.5 0.68095 0.681155 0 0.5 -0.996355 -0.996355 0.567002 -0.429353 -0.429353 
1.931 2 1 1 0 4.030132 -0.067129 -8.674013 -0.4053 -0.4831 -0.0013 -0.0018 0.6803 -0.0228 0.038867 -0.612056 -0.405326 -0.00129521 -0.00129521 -0.405326 -0.405326 -0 -0 0 -0.405326 -0.405326 -0.48306 -0.00180134 -0.00180134 -0.48306 -0.48306 -0 -0 0 -0.48306 -0.48306 0.5 0.68095 0.681134 0 0.5 -0.996236 -0.996236 0.552043 -0.444193 -0.444193 
1.941 2 1 1 0 4.058901 0.033564 -8.697988 -0.4202 -0.4979 -0.0013 -0.0017 0.6803 -0.0228 0.038867 -0.612275 -0.420179 -0.00129521 -0.00129521 -0.420179 -0.420179 -0 -0 0 -0.420179 -0.420179 -0.497912 -0.00172401 -0.00172401 -0.497912 -0.497912 -0 -0 0 -0.497912 -0.497912 0.5 0.68095 0.681115 0 0.5 -0.996131 -0.996131 0.537085 -0.459046 -0.459046 
1.951 2 1 1 0 4.066093 0.136655 -8.750732 -0.4350 -0.5128 -0.0013 -0.0017 0.6803 -0.0228 0.038867 -0.612539 -0.435037 -0.00129521 -0.00129521 -0.435037 -0.435037 -0 -0 0 -0.435037 -0.435037 -0.51277 -0.00165308 -0.00165308 -0.51277 -0.51277 -0 -0 0 -0.51277 -0.51277 0.5 0.68095 0.681097 0 0.5 -0.996032 -0.996032 0.522129 -0.473903 -0.473903 
1.961 2 1 1 0 4.054106 0.011987 -8.582910 -0.4499 -0.5276 -0.0013 -0.0016 0.6803 -0.0228 0.038867 -0.612792 -0.449906 -0.00129521 -0.00129521 -0.449906 -0.449906 -0 -0 0 -0.449906 -0.449906 -0.52764 -0.00158771 -0.00158771 -0.52764 -0.52764 -0 -0 0 -0.52764 -0.52764 0.5 0.68095 0.681081 0 0.5 -0.995947 -0.995947 0.507174 -0.488773 -0.488773 
1.971 2 1 1 0 4.044517 -0.148643 -8.592500 -0.4648 -0.5425 -0.0013 -0.0015 0.6803 -0.0228 0.038867 -0.613019 -0.464781 -0.00129521 -0.00129521 -0.464781 -0.464781 -0 -0 0 -0.464781 -0.464781 -0.542515 -0.00152733 -0.00152733 -0.542515 -0.542515 -0 -0 0 -0.542515 -0.542515 0.5 0.68095 0.681067 0 0.5 -0.995868 -0.995868 0.492221 -0.503648 -0.503648 
1.981 2 1 1 0 4.025337 -0.021577 -8.772309 -0.4797 -0.5574 -0.0013 -0.0015 0.6803 -0.0228 0.038867 -0.613265 -0.479661 -0.00129521 -0.00129521 -0.479661 -0.479661 -0 -0 0 -0.479661 -0.479661 -0.557395 -0.00147138 -0.00147138 -0.557395 -0.557395 -0 -0 0 -0.557395 -0.557395 0.5 0.68095 0.681054 0 0.5 -0.995796 -0.995796 0.477268 -0.518528 -0.518528 
1.991 2 1 1 0 4.003760 0.105488 -8.707578 -0.4945 -0.5723 -0.0013 -0.0014 0.6803 -0.0228 0.038867 -0.613501 -0.494548 -0.00129521 -0.00129521 -0.494548 -0.494548 -0 -0 0 -0.494548 -0.494548 -0.572282 -0.00141938 -0.00141938 -0.572282 -0.572282 -0 -0 0 -0.572282 -0.572282 0.5 0.68095 0.681042 0 0.5 -0.995732 -0.995732 0.462317 -0.533415 -0.533415 
2.001 2 1 1 0 4.027734 0.067129 -8.736347 -0.5094 -0.5872 -0.0013 -0.0014 0.6803 -0.0228 0.038867 -0.613703 -0.509447 -0.00129521 -0.00129521 -0.509447 -0.509447 -0 -0 0 -0.509447 -0.509447 -0.58718 -0.00137093 -0.00137093 -0.58718 -0.58718 -0 -0 0 -0.58718 -0.58718 0.5 0.68095 0.681033 0 0.5 -0.99568 -0.99568 0.447366 -0.548313 -0.548313 
2.011 2 1 1 0 4.049311 -0.011987 -8.664424 -0.5243 -0.6021 -0.0013 -0.0013 0.6803 -0.0228 0.038867 -0.613894 -0.524344 -0.00129521 -0.00129521 -0.524344 -0.524344 -0 -0 0 -0.524344 -0.524344 -0.602078 -0.0013257 -0.0013257 -0.602078 -0.602078 -0 -0 0 -0.602078 -0.602078 0.5 0.68095 0.681023 0 0.5 -0.995627 -0.995627 0.432416 -0.563211 -0.563211 
2.021 2 1 1 0 4.061299 -0.067129 -8.606885 -0.5392 -0.6170 -0.0013 -0.0013 0.6803 -0.0228 0.038867 -0.614090 -0.539243 -0.00129521 -0.00129521 -0.539243 -0.539243 -0 -0 0 -0.539243 -0.539243 -0.616977 -0.00128333 -0.00128333 -0.616977 -0.616977 -0 -0 0 -0.616977 -0.616977 0.5 0.68095 0.681014 0 0.5 -0.995577 -0.995577 0.417467 -0.57811 -0.57811 
2.031 2 1 1 0 3.970195 -0.062334 -8.695591 -0.5542 -0.6319 -0.0013 -0.0012 0.6803 -0.0228 0.038867 -0.614301 -0.554152 -0.00129521 -0.00129521 -0.554152 -0.554152 -0 -0 0 -0.554152 -0.554152 -0.631886 -0.0012436 -0.0012436 -0.631886 -0.631886 -0 -0 0 -0.631886 -0.631886 0.5 0.68095 0.681007 0 0.5 -0.995538 -0.995538 0.402519 -0.593019 -0.593019 
2.041 2 1 1 0 3.977388 0.067129 -8.719565 -0.5695 -0.6421 -0.0013 -0.0012 0.6801 -0.0228 0.036276 -0.614467 -0.569523 -0.00129521 -0.00129521 -0.569523 -0.569523 -0 -0 0 -0.569523 -0.569523 -0.642074 -0.00124105 -0.00124105 -0.642074 -0.642074 -0 -0 0 -0.642074 -0.642074 0.5 0.680749 0.680618 0 0.5 -0.993401 -0.993401 0.387602 -0.605798 -0.605798 
2.051 2 1 1 0 4.051709 0.038359 -8.628462 -0.5845 -0.6571 -0.0013 -0.0012 0.6801 -0.0228 0.036276 -0.614666 -0.584505 -0.00129521 -0.00129521 -0.584505 -0.584505 -0 -0 0 -0.584505 -0.584505 -0.657056 -0.00124105 -0.00124105 -0.657056 -0.657056 -0 -0 0 -0.657056 -0.657056 0.5 0.680749 0.68063 0 0.5 -0.993466 -0.993466 0.372686 -0.62078 -0.62078 
2.061 2 1 1 0 4.008554 -0.086309 -8.594897 -0.5995 -0.6720 -0.0013 -0.0012 0.6801 -0.0228 0.036276 -0.614892 -0.599478 -0.00129521 -0.00129521 -0.599478 -0.599478 -0 -0 0 -0.599478 -0.599478 -0.67203 -0.00124105 -0.00124105 -0.67203 -0.67203 -0 -0 0 -0.67203 -0.67203 0.5 0.680749 0.68064 0 0.5 -0.993523 -0.993523 0.357768 -0.635754 -0.635754 
2.071 2 1 1 0 3.955810 -0.100693 -8.750732 -0.6144 -0.6870 -0.0013 -0.0012 0.6801 -0.0228 0.036276 -0.615032 -0.614449 -0.00129521 -0.00129521 -0.614449 -0.614449 -0 -0 0 -0.614449 -0.614449 -0.687001 -0.00124105 -0.00124105 -0.687001 -0.687001 -0 -0 0 -0.687001 -0.687001 0.5 0.680749 0.68065 0 0.5 -0.993575 -0.993575 0.34285 -0.650725 -0.650725 
2.081 2 1 1 0 3.986977 0.023975 -8.798681 -0.6294 -0.7020 -0.0013 -0.0012 0.6801 -0.0228 0.036276 -0.615155 -0.62942 -0.00129521 -0.00129521 -0.62942 -0.62942 -0 -0 0 -0.62942 -0.62942 -0.701972 -0.00124105 -0.00124105 -0.701972 -0.701972 -0 -0 0 -0.701972 -0.701972 0.5 0.68074 
2.091 2 1 1 0 3.922246 0.019180 -8.760322 -0.6444 -0.7169 -0.0013 -0.0012 0.6801 -0.0228 0.036276 -0.615283 -0.644382 -0.00129521 -0.00129521 -0.644382 -0.644382 -0 -0 0 -0.644382 -0.644382 -0.716933 -0.00124105 -0.00124105 -0.716933 -0.716933 -0 -0 0 -0.716933 -0.716933 0.5 0.680749 0.680667 0 0.5 -0.993669 -0.993669 0.313012 -0.680658 -0.680658 
2.101 2 1 1 0 3.977388 0.028770 -8.652436 -0.6593 -0.7319 -0.0013 -0.0012 0.6801 -0.0228 0.036276 -0.615435 -0.659342 -0.00129521 -0.00129521 -0.659342 -0.659342 -0 -0 0 -0.659342 -0.659342 -0.731893 -0.00124105 -0.00124105 -0.731893 -0.731893 -0 -0 0 -0.731893 -0.731893 0.5 0.680749 0.680674 0 0.5 -0.993709 -0.993709 0.298091 -0.695617 -0.695617 
2.111 2 1 1 0 3.991772 -0.043154 -8.743540 -0.6743 -0.7468 -0.0013 -0.0012 0.6801 -0.0228 0.036276 -0.615558 -0.674296 -0.00129521 -0.00129521 -0.674296 -0.674296 -0 -0 0 -0.674296 -0.674296 -0.746848 -0.00124105 -0.00124105 -0.746848 -0.746848 -0 -0 0 -0.746848 -0.746848 0.5 0.680749 0.680681 0 0.5 -0.993743 -0.993743 0.283171 -0.710572 -0.710572 
2.121 2 1 1 0 3.876694 -0.038359 -8.736347 -0.6849 -0.7574 -0.0020 -0.0047 0.6797 -0.0228 0.036276 -0.615602 -0.684878 -0.00202569 -0.00202569 -0.684878 -0.684878 -0 -0 0 -0.684878 -0.684878 -0.757429 -0.00467237 -0.00467237 -0.757429 -0.757429 -0 -0 0 -0.757429 -0.757429 0.5 0.680348 0.679895 0 0.5 -0.989423 -0.989423 0.268269 -0.721154 -0.721154 
2.131 2 1 1 0 3.955810 0.016782 -8.702783 -0.7000 -0.7725 -0.0020 -0.0047 0.6797 -0.0228 0.036276 -0.615697 -0.699984 -0.00202569 -0.00202569 -0.699984 -0.699984 -0 -0 0 -0.699984 -0.699984 -0.772535 -0.00467237 -0.00467237 -0.772535 -0.772535 -0 -0 0 -0.772535 -0.772535 0.5 0.680348 0.67994 0 0.5 -0.989671 -0.989671 0.253411 -0.73626 -0.73626 
2.141 2 1 1 0 4.003760 0.136655 -8.721963 -0.7151 -0.7876 -0.0020 -0.0047 0.6797 -0.0228 0.036276 -0.615793 -0.715069 -0.00202569 -0.00202569 -0.715069 -0.715069 -0 -0 0 -0.715069 -0.715069 -0.78762 -0.00467237 -0.00467237 -0.78762 -0.78762 -0 -0 0 -0.78762 -0.78762 0.5 0.680348 0.679981 0 0.5 -0.989893 -0.989893 0.238549 -0.751344 -0.751344 
2.151 2 1 1 0 3.898271 -0.021577 -8.750732 -0.7301 -0.8027 -0.0020 -0.0047 0.6797 -0.0228 0.036276 -0.615829 -0.730135 -0.00202569 -0.00202569 -0.730135 -0.730135 -0 -0 0 -0.730135 -0.730135 -0.802687 -0.00467237 -0.00467237 -0.802687 -0.802687 -0 -0 0 -0.802687 -0.802687 0.5 0.680348 0.680017 0 0.5 -0.990095 -0.990095 0.223684 -0.766411 -0.766411 
2.161 2 1 1 0 3.907861 0.007192 -8.726758 -0.7456 -0.8130 -0.0020 -0.0107 0.6795 -0.0228 0.033685 -0.615887 -0.74561 -0.00202569 -0.00202569 -0.74561 -0.74561 -0 -0 0 -0.74561 -0.74561 -0.81298 -0.0106824 -0.0106824 -0.81298 -0.81298 -0 -0 0 -0.81298 -0.81298 0.5 0.680147 0.67966 0 0.5 -0.98813 -0.98813 0.208835 -0.779295 -0.779295 
2.171 2 1 1 0 3.811963 -0.055142 -8.630859 -0.7607 -0.8281 -0.0020 -0.0107 0.6795 -0.0228 0.033685 -0.615794 -0.760715 -0.00202569 -0.00202569 -0.760715 -0.760715 -0 -0 0 -0.760715 -0.760715 -0.828085 -0.0106824 -0.0106824 -0.828085 -0.828085 -0 -0 0 -0.828085 -0.828085 0.5 0.680147 0.679708 0 0.5 -0.988396 -0.988396 0.193996 -0.7944 -0.7944 
2.181 2 1 1 0 3.766411 0.014385 -8.765117 -0.7715 -0.8388 -0.0075 -0.0178 0.6791 -0.0228 0.033685 -0.615685 -0.771476 -0.00752745 -0.00752745 -0.771476 -0.771476 -0 -0 0 -0.771476 -0.771476 -0.838846 -0.0178437 -0.0178437 -0.838846 -0.838846 -0 -0 0 -0.838846 -0.838846 0.5 0.679745 0.678973 0 0.5 -0.984353 -0.984353 0.179192 -0.805161 -0.805161 
2.191 2 1 1 0 3.694487 0.000000 -8.731552 -0.7867 -0.8541 -0.0075 -0.0178 0.6791 -0.0228 0.033685 -0.615463 -0.786683 -0.00752745 -0.00752745 -0.786683 -0.786683 -0 -0 0 -0.786683 -0.786683 -0.854052 -0.0178437 -0.0178437 -0.854052 -0.854052 -0 -0 0 -0.854052 -0.854052 0.5 0.679745 0.67905 0 0.5 -0.984777 -0.984777 0.164409 -0.820368 -0.820368 
2.201 2 1 1 0 3.600986 -0.011987 -8.877797 -0.7975 -0.8649 -0.0165 -0.0236 0.6787 -0.0229 0.033685 -0.615166 -0.797523 -0.0165153 -0.0165153 -0.797523 -0.797523 -0 -0 0 -0.797523 -0.797523 -0.864892 -0.0236404 -0.0236404 -0.864892 -0.864892 -0 -0 0 -0.864892 -0.864892 0.5 0.679344 0.678339 0 0.5 -0.980863 -0.980863 0.149656 -0.831208 -0.831208 
2.211 2 1 1 0 3.588999 0.045552 -8.863413 -0.8132 -0.8754 -0.0165 -0.0295 0.6785 -0.0229 0.031093 -0.614842 -0.813208 -0.0165153 -0.0165153 -0.813208 -0.813208 -0 -0 0 -0.813208 -0.813208 -0.875395 -0.0295198 -0.0295198 -0.875395 -0.875395 -0 -0 0 -0.875395 -0.875395 0.5 0.679143 0.678042 0 0.5 -0.979233 -0.979233 0.134932 -0.844301 -0.844301 
2.221 2 1 1 0 3.517075 -0.057539 -8.983286 -0.8238 -0.8911 -0.0231 -0.0295 0.6783 -0.0229 0.033685 -0.614433 -0.823778 -0.0230662 -0.0230662 -0.823778 -0.823778 -0 -0 0 -0.823778 -0.823778 -0.891147 -0.0295198 -0.0295198 -0.891147 -0.891147 -0 -0 0 -0.891147 -0.891147 0.5 0.678942 0.677766 0 0.5 -0.977711 -0.977711 0.120249 -0.857462 -0.857462 
2.231 2 1 1 0 3.591396 -0.069526 -8.968901 -0.8348 -0.9022 -0.0313 -0.0304 0.6779 -0.0229 0.033685 -0.614141 -0.834804 -0.0312683 -0.0312683 -0.834804 -0.834804 -0 -0 0 -0.834804 -0.834804 -0.902173 -0.0303559 -0.0303559 -0.902173 -0.902173 -0 -0 0 -0.902173 -0.902173 0.5 0.67854 0.677109 0 0.5 -0.974098 -0.974098 0.105609 -0.868489 -0.868489 
2.241 2 1 1 0 3.680102 -0.122271 -8.671616 -0.8459 -0.9133 -0.0402 -0.0345 0.6775 -0.0229 0.033685 -0.613879 -0.845905 -0.0402174 -0.0402174 -0.845905 -0.845905 -0 -0 0 -0.845905 -0.845905 -0.913274 -0.0344557 -0.0344557 -0.913274 -0.913274 -0 -0 0 -0.913274 -0.913274 0.5 0.678139 0.676474 0 0.5 -0.970605 -0.970605 0.0910157 -0.879589 -0.879589 
2.251 2 1 1 0 3.586601 0.057539 -9.383662 -0.8571 -0.9245 -0.0552 -0.0368 0.6771 -0.0229 0.033685 -0.613304 -0.857101 -0.055153 -0.055153 -0.857101 -0.857101 -0 -0 0 -0.857101 -0.857101 -0.92447 -0.0368066 -0.0368066 -0.92447 -0.92447 -0 -0 0 -0.92447 -0.92447 0.5 0.677737 0.675867 0 0.5 -0.967266 -0.967266 0.0764806 -0.890786 -0.890786 
2.261 2 1 1 0 4.286660 0.333247 -8.261650 -0.8684 -0.9357 -0.0443 -0.0439 0.6767 -0.0229 0.033685 -0.613592 -0.868376 -0.0443359 -0.0443359 -0.868376 -0.868376 -0 -0 0 -0.868376 -0.868376 -0.935746 -0.0439069 -0.0439069 -0.935746 -0.935746 -0 -0 0 -0.935746 -0.935746 0.5 0.677336 0.675284 0 0.5 -0.964062 -0.964062 0.0620011 -0.902061 -0.902061 
2.271 2 1 1 0 4.346597 -0.196592 -8.592500 -0.8801 -0.9423 -0.0403 -0.0546 0.6761 -0.0229 0.031093 -0.614598 -0.880103 -0.0402753 -0.0402753 -0.880103 -0.880103 -0 -0 0 -0.880103 -0.880103 -0.94229 -0.0546217 -0.0546217 -0.94229 -0.94229 -0 -0 0 -0.94229 -0.94229 0.5 0.676733 0.674322 0 0.5 -0.958774 -0.958774 0.0475772 -0.911196 -0.911196 
2.281 2 1 1 0 3.560229 -0.222964 -8.901772 -0.8868 -0.9541 -0.0506 -0.0701 0.6755 -0.0230 0.033685 -0.614218 -0.886756 -0.0506254 -0.0506254 -0.886756 -0.886756 -0 -0 0 -0.886756 -0.886756 -0.954125 -0.0700705 -0.0700705 -0.954125 -0.954125 -0 -0 0 -0.954125 -0.954125 0.5 0.676131 0.673394 0 0.5 -0.953665 -0.953665 0.0332247 -0.920441 -0.920441 
2.291 2 1 1 0 3.138276 -0.314067 -9.206249 -0.8987 -0.9609 -0.0467 -0.0559 0.6749 -0.0230 0.031093 -0.613092 -0.898684 -0.0466643 -0.0466643 -0.898684 -0.898684 -0 -0 0 -0.898684 -0.898684 -0.960871 -0.055881 -0.055881 -0.960871 -0.960871 -0 -0 0 -0.960871 -0.960871 0.5 0.675528 0.672494 0 0.5 -0.948719 -0.948719 0.018941 -0.929778 -0.929778 
2.301 2 1 1 0 3.855117 0.364414 -8.664424 -0.9103 -0.9725 -0.0503 -0.0633 0.6745 -0.0230 0.031093 -0.613184 -0.910291 -0.0503023 -0.0503023 -0.910291 -0.910291 -0 -0 0 -0.910291 -0.910291 -0.972478 -0.0633185 -0.0633185 -0.972478 -0.972478 -0 -0 0 -0.972478 -0.972478 0.5 0.675127 0.672019 0 0.5 -0.946104 -0.946104 0.00471911 -0.941385 -0.941385 
2.311 2 1 1 0 3.545845 -0.023975 -8.849028 -0.9176 -0.9797 -0.0693 -0.0637 0.6737 -0.0230 0.031093 -0.612889 -0.917553 -0.0692794 -0.0692794 -0.917553 -0.917553 -0 -0 0 -0.917553 -0.917553 -0.97974 -0.0636724 -0.0636724 -0.97974 -0.97974 -0 -0 0 -0.97974 -0.97974 0.5 0.674323 0.670766 0 0.5 -0.939212 -0.939212 -0.00943462 -0.948646 -0.948646 
2.321 2 1 1 0 3.704077 0.407568 -9.095966 -0.9297 -0.9867 -0.0657 -0.0733 0.6731 -0.0230 0.028502 -0.612105 -0.929714 -0.0657367 -0.0657367 -0.929714 -0.929714 -0 -0 0 -0.929714 -0.929714 -0.9867178 -0.958216 -0.958216 
2.331 2 1 1 0 3.915054 -0.225361 -8.777104 -0.9372 -0.9942 -0.0619 -0.0746 0.6723 -0.0231 0.028502 -0.612344 -0.937166 -0.0618978 -0.0618978 -0.937166 -0.937166 -0 -0 0 -0.937166 -0.937166 -0.994171 -0.0746351 -0.0746351 -0.994171 -0.994171 -0 -0 0 -0.994171 -0.994171 0.5 0.672918 0.668758 0 0.5 -0.928169 -0.928169 -0.0374999 -0.965668 -0.965668 
2.341 2 1 1 0 3.670513 -0.661699 -8.745937 -0.9443 -1.0065 -0.0685 -0.0703 0.6717 -0.0231 0.031093 -0.612801 -0.944296 -0.0685029 -0.0685029 -0.944296 -0.944296 -0 -0 0 -0.944296 -0.944296 -1.00648 -0.0702806 -0.0702806 -1.00648 -1.00648 -0 -0 0 -1.00648 -1.00648 0.5 0.672315 0.667995 0 0.5 -0.923973 -0.923973 -0.0514163 -0.975389 -0.975389 
2.351 2 1 1 0 3.195815 -0.210977 -9.155903 -0.9523 -1.0093 -0.0767 -0.0881 0.6707 -0.0231 0.028502 -0.611861 -0.952291 -0.0766641 -0.0766641 -0.952291 -0.952291 -0 -0 0 -0.952291 -0.952291 -1.0093 -0.0881439 -0.0881439 -1.0093 -1.0093 -0 -0 0 -1.0093 -1.0093 0.5 0.671311 0.666464 0 0.5 -0.915552 -0.915552 -0.0652413 -0.980794 -0.980794 
2.361 2 1 1 0 3.214995 0.503467 -9.146314 -0.9600 -1.0170 -0.0799 -0.0853 0.6699 -0.0231 0.028502 -0.611251 -0.960007 -0.0798742 -0.0798742 -0.960007 -0.960007 -0 -0 0 -0.960007 -0.960007 -1.01701 -0.0852916 -0.0852916 -1.01701 -1.01701 -0 -0 0 -1.01701 -1.01701 0.5 0.670508 0.665371 0 0.5 -0.90954 -0.90954 -0.0789696 -0.988509 -0.988509 
2.371 2 1 1 0 4.207544 0.596968 -7.914018 -0.9726 -1.0244 -0.0730 -0.0951 0.6693 -0.0232 0.025911 -0.611671 -0.97261 -0.072964 -0.072964 -0.97261 -0.97261 -0 -0 0 -0.97261 -0.97261 -1.02443 -0.0950608 -0.0950608 -1.02443 -1.02443 -0 -0 0 -1.02443 -1.02443 0.5 0.669906 0.664713 0 0.5 -0.905921 -0.905921 -0.0926006 -0.998522 -0.998522 
2.381 2 1 1 0 4.231518 -0.232554 -9.129531 -0.9757 -1.0327 -0.0957 -0.0934 0.6683 -0.0232 0.028502 -0.612665 -0.97568 -0.095657 -0.095657 -0.97568 -0.97568 -0 -0 0 -0.97568 -0.97568 -1.03268 -0.0934064 -0.0934064 -1.03268 -1.03268 -0 -0 0 -1.03268 -1.03268 0.5 0.668902 0.66328 0 0.5 -0.89804 -0.89804 -0.106142 -1.00418 -1.00418 
2.391 2 1 1 0 3.294111 -0.469902 -9.083980 -0.9841 -1.0359 -0.0901 -0.1180 0.6673 -0.0232 0.025911 -0.611489 -0.984054 -0.0900696 -0.0900696 -0.984054 -0.984054 -0 -0 0 -0.984054 -0.984054 -1.03588 -0.117963 -0.117963 -1.03588 -1.03588 -0 -0 0 -1.03588 -1.03588 0.5 0.667898 0.661891 0 0.5 -0.890398 -0.890398 -0.119567 -1.00997 -1.00997 
2.401 2 1 1 0 3.205405 0.414761 -8.899375 -0.9925 -1.0392 -0.0953 -0.1026 0.6663 -0.0232 0.023320 -0.610263 -0.992536 -0.0952845 -0.0952845 -0.992536 -0.992536 -0 -0 0 -0.992536 -0.992536 -1.03918 -0.102587 -0.102587 -1.03918 -1.03918 -0 -0 0 -1.03918 -1.03918 0.5 0.666893 0.660542 0 0.5 -0.88298 -0.88298 -0.132875 -1.01586 -1.01586 
2.411 2 1 1 0 4.138018 0.318862 -8.455845 -0.9959 -1.0477 -0.0980 -0.0957 0.6653 -0.0233 0.025911 -0.610933 -0.995902 -0.097965 -0.097965 -0.995902 -0.995902 -0 -0 0 -0.995902 -0.995902 -1.04772 -0.0957483 -0.0957483 -1.04772 -1.04772 -0 -0 0 -1.04772 -1.04772 0.5 0.665889 0.659224 0 0.5 -0.875733 -0.875733 -0.14608 -1.02181 -1.02181 
2.421 2 1 1 0 3.917451 0.007192 -8.810669 -1.0045 -1.0511 -0.1089 -0.1127 0.6643 -0.0233 0.023320 -0.611628 -1.0045 -0.108893 -0.108893 -1.0045 -1.0045 -0 -0 0 -1.0045 -1.0045 -1.05114 -0.112659 -0.112659 -1.05114 -1.05114 -0 -0 0 -1.05114 -1.05114 0.5 0.664885 0.657934 0 0.5 -0.868637 -0.868637 -0.159184 -1.02782 -1.02782 
2.431 2 1 1 0 2.896133 -0.115078 -8.635654 -1.0084 -1.0550 -0.1165 -0.1313 0.6631 -0.0233 0.023320 -0.610542 -1.00841 -0.116535 -0.116535 -1.00841 -1.00841 -0 -0 0 -1.00841 -1.00841 -1.05505 -0.131275 -0.131275 -1.05505 -1.05505 -0 -0 0 -1.05505 -1.05505 0.5 0.663681 0.656285 0 0.5 -0.859566 -0.859566 -0.172162 -1.03173 -1.03173 
2.441 2 1 1 0 3.387612 -0.244541 -9.139121 -1.0168 -1.0634 -0.0841 -0.1010 0.6623 -0.0233 0.023320 -0.609920 -1.01679 -0.0840789 -0.0840789 -1.01679 -1.01679 -0 -0 0 -1.01679 -1.01679 -1.06343 -0.101012 -0.101012 -1.06343 -1.06343 -0 -0 0 -1.06343 -1.06343 0.5 0.662877 0.65547 0 0.5 -0.855088 -0.855088 -0.185025 -1.04011 -1.04011 
2.451 2 1 1 0 4.478457 -0.824727 -7.494462 -1.0208 -1.0674 -0.1344 -0.1097 0.6611 -0.0234 0.023320 -0.611786 -1.0208 -0.134352 -0.134352 -1.0208 -1.0208 -0 -0 0 -1.0208 -1.0208 -1.06744 -0.109697 -0.109697 -1.06744 -1.06744 -0 -0 0 -1.06744 -1.06744 0.5 0.661672 0.653881 0 0.5 -0.846347 -0.846347 -0.197778 -1.04412 -1.04412 
2.461 2 1 1 0 3.526665 -0.196592 -10.028579 -1.0253 -1.0668 -0.1123 -0.1323 0.6596 -0.0234 0.020729 -0.610615 -1.02531 -0.112348 -0.112348 -1.02531 -1.02531 -0 -0 0 -1.02531 -1.02531 -1.06677 -0.132287 -0.132287 -1.06677 -1.06677 -0 -0 0 -1.06677 -1.06677 0.5 0.660267 0.651936 0 0.5 -0.83565 -0.83565 -0.21039 -1.04604 -1.04604 
2.471 2 1 1 0 3.315688 0.707251 -8.805874 -1.0295 -1.0710 -0.1230 -0.1105 0.6584 -0.0234 0.020729 -0.609053 -1.02951 -0.123043 -0.123043 -1.02951 -1.02951 -0 -0 0 -1.02951 -1.02951 -1.07097 -0.110536 -0.110536 -1.07097 -1.07097 -0 -0 0 -1.07097 -1.07097 0.5 0.659062 0.65043 0 0.5 -0.827366 -0.827366 -0.222872 -1.05024 -1.05024 
2.481 2 1 1 0 4.061299 -0.153437 -8.175342 -1.0337 -1.0752 -0.1132 -0.1356 0.6572 -0.0234 0.020729 -0.610043 -1.03374 -0.113168 -0.113168 -1.03374 -1.03374 -0 -0 0 -1.03374 -1.03374 -1.0752 -0.135583 -0.135583 -1.0752 -1.0752 -0 -0 0 -1.0752 -1.0752 0.5 0.657857 0.648952 0 0.5 -0.819236 -0.819236 -0.235234 -1.05447 -1.05447 
2.491 2 1 1 0 4.171582 -0.047949 -10.256337 -1.0380 -1.0795 -0.1151 -0.1405 0.6560 -0.0235 0.020729 -0.609725 -1.03802 -0.115101 -0.115101 -1.03802 -1.03802 -0 -0 0 -1.03802 -1.03802 -1.07948 -0.140514 -0.140514 -1.07948 -1.07948 -0 -0 0 -1.07948 -1.07948 0.5 0.656652 0.647506 0 0.5 -0.811283 -0.811283 -0.247468 -1.05875 -1.05875 
2.501 2 1 1 0 3.193418 0.107886 -6.863930 -1.0423 -1.0838 -0.1228 -0.1275 0.6548 -0.0235 0.020729 -0.609908 -1.04233 -0.122769 -0.122769 -1.04233 -1.04233 -0 -0 0 -1.04233 -1.04233 -1.08379 -0.127454 -0.127454 -1.08379 -1.08379 -0 -0 0 -1.08379 -1.08379 0.5 0.655447 0.646088 0 0.5 -0.803485 -0.803485 -0.259577 -1.06306 -1.06306 
2.511 2 1 1 0 3.538652 -0.347632 -10.038169 -1.0423 -1.0837 -0.1360 -0.1396 0.6532 -0.0235 0.020729 -0.609804 -1.04229 -0.135967 -0.135967 -1.04229 -1.04229 -0 -0 0 -1.04229 -1.04229 -1.08374 -0.139554 -0.139554 -1.08374 -1.08374 -0 -0 0 -1.08374 -1.08374 0.5 0.653841 0.643903 0 0.5 -0.791467 -0.791467 -0.271548 -1.06302 -1.06302 
2.521 2 1 1 0 4.049311 0.227759 -9.194263 -1.0467 -1.0882 -0.1241 -0.1427 0.6520 -0.0236 0.020729 -0.608929 -1.04671 -0.124138 -0.124138 -1.04671 -1.04671 -0 -0 0 -1.04671 -1.04671 -1.08817 -0.142738 -0.142738 -1.08817 -1.08817 -0 -0 0 -1.08817 -1.08817 0.5 0.652636 0.642557 0 0.5 -0.784065 -0.784065 -0.283376 -1.06744 -1.06744 
2.531 2 1 1 0 3.502690 0.093501 -7.060522 -1.0515 -1.0878 -0.1489 -0.1454 0.6506 -0.0236 0.018138 -0.610349 -1.05155 -0.148943 -0.148943 -1.05155 -1.05155 -0 -0 0 -1.05155 -1.05155 -1.08782 -0.145356 -0.145356 -1.08782 -1.08782 -0 -0 0 -1.08782 -1.08782 0.5 0.65123 0.640839 0 0.5 -0.774616 -0.774616 -0.295069 -1.06968 -1.06968 
2.541 2 1 1 0 3.900669 -0.098296 -11.663647 -1.0516 -1.0879 -0.1172 -0.1581 0.6490 -0.0236 0.018138 -0.608952 -1.05164 -0.11723 -0.11723 -1.05164 -1.05164 -0 -0 0 -1.05164 -1.05164 -1.08792 -0.158104 -0.158104 -1.08792 -1.08792 -0 -0 0 -1.08792 -1.08792 0.5 0.649624 0.638759 0 0.5 -0.763172 -0.763172 -0.306611 -1.06978 -1.06978 
2.551 2 1 1 0 3.881489 0.465107 -6.336489 -1.0566 -1.0877 -0.1552 -0.1478 0.6476 -0.0236 0.015547 -0.609628 -1.05656 -0.15516 -0.15516 -1.05656 -1.05656 -0 -0 0 -1.05656 -1.05656 -1.08765 -0.147823 -0.147823 -1.08765 -1.08765 -0 -0 0 -1.08765 -1.08765 0.5 0.648218 0.637108 0 0.5 -0.754092 -0.754092 -0.318013 -1.0721 -1.0721 
2.561 2 1 1 0 3.437959 -0.347632 -9.779243 -1.0563 -1.0926 -0.1489 -0.1427 0.6462 -0.0237 0.018138 -0.609977 -1.05633 -0.14892 -0.14892 -1.05633 -1.05633 -0 -0 0 -1.05633 -1.05633 -1.09261 -0.142664 -0.142664 -1.09261 -1.09261 -0 -0 0 -1.09261 -1.09261 0.5 0.646813 0.635492 0 0.5 -0.745204 -0.745204 -0.329264 -1.07447 -1.07447 
2.571 2 1 1 0 3.922246 0.244541 -8.340766 -1.0565 -1.0928 -0.1600 -0.1798 0.6446 -0.0237 0.018138 -0.609929 -1.0565 -0.159962 -0.159962 -1.0565 -1.0565 -0 -0 0 -1.0565 -1.0565 -1.09277 -0.179755 -0.179755 -1.09277 -1.09277 -0 -0 0 -1.09277 -1.09277 0.5 0.645206 0.633503 0 0.5 -0.734266 -0.734266 -0.34037 -1.07464 -1.07464 
2.581 2 1 1 0 3.286919 -0.002397 -8.554140 -1.0567 -1.0930 -0.1578 -0.1365 0.6430 -0.0237 0.018138 -0.610966 -1.05671 -0.157765 -0.157765 -1.05671 -1.05671 -0 -0 0 -1.05671 -1.05671 -1.09298 -0.136452 -0.136452 -1.09298 -1.09298 -0 -0 0 -1.09298 -1.09298 0.5 0.6436 0.63155 0 0.5 -0.723527 -0.723527 -0.351318 -1.07484 -1.07484 
2.591 2 1 1 0 4.708613 0.187002 -10.263530 -1.0617 -1.0928 -0.1404 -0.1829 0.6416 -0.0237 0.015547 -0.610368 -1.06171 -0.140448 -0.140448 -1.06171 -1.06171 -0 -0 0 -1.06171 -1.06171 -1.09281 -0.182885 -0.182885 -1.09281 -1.09281 -0 -0 0 -1.09281 -1.09281 0.5 0.642194 0.630025 0 0.5 -0.715138 -0.715138 -0.36212 -1.07726 -1.07726 
2.601 2 1 1 0 3.768808 0.047949 -7.693452 -1.0620 -1.0931 -0.1663 -0.1454 0.6400 -0.0238 0.015547 -0.611580 -1.06196 -0.16627 -0.16627 -1.06196 -1.06196 -0 -0 0 -1.06196 -1.06196 -1.09305 -0.145408 -0.145408 -1.09305 -1.09305 -0 -0 0 -1.09305 -1.09305 0.5 0.640588 0.628136 0 0.5 -0.704749 -0.704749 -0.372757 -1.07751 -1.07751 
2.611 2 1 1 0 3.979785 -0.570596 -10.855702 -1.0626 -1.0885 -0.1607 -0.1926 0.6382 -0.0238 0.012956 -0.609869 -1.0626 -0.160663 -0.160663 -1.0626 -1.0626 -0 -0 0 -1.0626 -1.0626 -1.08851 -0.192575 -0.192575 -1.08851 -1.08851 -0 -0 0 -1.08851 -1.08851 0.5 0.63878 0.625875 0 0.5 -0.692314 -0.692314 -0.383236 -1.07555 -1.07555 
2.621 2 1 1 0 4.217134 0.429145 -7.372192 -1.0581 -1.0892 -0.1614 -0.1701 0.6364 -0.0238 0.015547 -0.610122 -1.05808 -0.161414 -0.161414 -1.05808 -1.05808 -0 -0 0 -1.05808 -1.05808 -1.08918 -0.170102 -0.170102 -1.08918 -1.08918 -0 -0 0 -1.08918 -1.08918 0.5 0.636973 0.623652 0 0.5 -0.680085 -0.680085 -0.393545 -1.07363 -1.07363 
2.631 2 1 1 0 4.394546 0.580186 -9.537099 -1.0584 -1.0895 -0.1838 -0.1894 0.6348 -0.0238 0.015547 -0.609759 -1.05837 -0.183775 -0.183775 -1.05837 -1.05837 -0 -0 0 -1.05837 -1.05837 -1.08946 -0.189438 -0.189438 -1.08946 -1.08946 -0 -0 0 -1.08946 -1.08946 0.5 0.635367 0.621859 0 0.5 -0.670224 -0.670224 -0.403692 -1.07392 -1.07392 
2.641 2 1 1 0 2.668374 -0.879868 -8.398305 -1.0591 -1.0850 -0.1662 -0.1529 0.6329 -0.0239 0.012956 -0.610198 -1.05906 -0.166155 -0.166155 -1.05906 -1.05906 -0 -0 0 -1.05906 -1.05906 -1.08497 -0.1529 -0.1529 -1.08497 -1.08497 -0 -0 0 -1.08497 -1.08497 0.5 0.633559 0.6197 0 0.5 -0.658352 -0.658352 -0.413664 -1.07202 -1.07202 
2.651 2 1 1 0 4.241108 -0.671289 -9.995014 -1.0593 -1.0852 -0.1744 -0.1946 0.6313 -0.0239 0.012956 -0.609547 -1.05932 -0.174385 -0.174385 -1.05932 -1.05932 -0 -0 0 -1.05932 -1.05932 -1.08523 -0.194566 -0.194566 -1.08523 -1.08523 -0 -0 0 -1.08523 -1.08523 0.5 0.631953 0.617961 0 0.5 -0.648788 -0.648788 -0.423487 -1.07227 -1.07227 
2.661 2 1 1 0 3.409189 -0.290093 -7.149228 -1.0600 -1.0807 -0.1784 -0.1779 0.6295 -0.0239 0.010364 -0.611367 -1.05999 -0.178387 -0.178387 -1.05999 -1.05999 -0 -0 0 -1.05999 -1.05999 -1.08072 -0.177907 -0.177907 -1.08072 -1.08072 -0 -0 0 -1.08072 -1.08072 0.5 0.630146 0.61586 0 0.5 -0.63723 -0.63723 -0.433127 -1.07036 -1.07036 
2.671 2 1 1 0 4.571958 -0.306875 -9.877539 -1.0606 -1.0762 -0.1791 -0.1915 0.6277 -0.0239 0.007773 -0.610394 -1.06063 -0.179117 -0.179117 -1.06063 -1.06063 -0 -0 0 -1.06063 -1.06063 -1.07618 -0.191458 -0.191458 -1.07618 -1.07618 -0 -0 0 -1.07618 -1.07618 0.5 0.628338 0.613782 0 0.5 -0.625799 -0.625799 -0.442604 -1.0684 -1.0684 
2.681 2 1 1 0 2.047431 -0.889458 -7.388974 -1.0561 -1.0768 -0.1716 -0.1836 0.6259 -0.0239 0.010364 -0.610861 -1.05608 -0.171616 -0.171616 -1.05608 -1.05608 -0 -0 0 -1.05608 -1.05608 -1.0768 -0.183551 -0.183551 -1.0768 -1.0768 -0 -0 0 -1.0768 -1.0768 0.5 0.626531 0.611733 0 0.5 -0.614533 -0.614533 -0.451907 -1.06644 -1.06644 
2.691 2 1 1 0 4.365776 -0.206182 -9.757666 -1.0567 -1.0722 -0.1719 -0.2137 0.6241 -0.0240 0.007773 -0.610535 -1.05668 -0.171873 -0.171873 -1.05668 -1.05668 -0 -0 0 -1.05668 -1.05668 -1.07223 -0.213744 -0.213744 -1.07223 -1.07223 -0 -0 0 -1.07223 -1.07223 0.5 0.624724 0.609713 0 0.5 -0.603422 -0.603422 -0.461036 -1.06446 -1.06446 
2.701 2 1 1 0 3.368433 -0.021577 -8.894580 -1.0525 -1.0680 -0.1744 -0.1845 0.6221 -0.0240 0.007773 -0.610367 -1.05248 -0.17437 -0.17437 -1.05248 -1.05248 -0 -0 0 -1.05248 -1.05248 -1.06803 -0.184499 -0.184499 -1.06803 -1.06803 -0 -0 0 -1.06803 -1.06803 0.5 0.622716 0.607322 0 0.5 -0.590271 -0.590271 -0.469984 -1.06026 -1.06026 
2.711 2 1 1 0 2.802632 0.007192 -8.132187 -1.0483 -1.0638 -0.2004 -0.2004 0.6201 -0.0240 0.007773 -0.609926 -1.04826 -0.200436 -0.200436 -1.04826 -1.04826 -0 -0 0 -1.04826 -1.04826 -1.06381 -0.200411 -0.200411 -1.06381 -1.06381 -0 -0 0 -1.06381 -1.06381 0.5 0.620708 0.604961 0 0.5 -0.577288 -0.577288 -0.478749 -1.05604 -1.05604 
2.721 2 1 1 0 3.179033 0.035962 -9.026441 -1.0488 -1.0592 -0.1713 -0.2035 0.6183 -0.0240 0.005182 -0.610168 -1.04882 -0.171256 -0.171256 -1.04882 -1.04882 -0 -0 0 -1.04882 -1.04882 -1.05918 -0.203534 -0.203534 -1.05918 -1.05918 -0 -0 0 -1.05918 -1.05918 0.5 0.6189 0.603031 0 0.5 -0.566668 -0.566668 -0.487333 -1.054 -1.054 
2.731 2 1 1 0 3.536255 0.525044 -7.432129 -1.0446 -1.0549 -0.2004 -0.2065 0.6163 -0.0240 0.005182 -0.609894 -1.04455 -0.200386 -0.200386 -1.04455 -1.04455 -0 -0 0 -1.04455 -1.04455 -1.05491 -0.20653 -0.20653 -1.05491 -1.05491 -0 -0 0 -1.05491 -1.05491 0.5 0.616892 0.600728 0 0.5 -0.554004 -0.554004 -0.495729 -1.04973 -1.04973 
2.741 2 1 1 0 4.200351 -0.426748 -9.618613 -1.0402 -1.0506 -0.1850 -0.2022 0.6143 -0.0240 0.005182 -0.609476 -1.04022 -0.185016 -0.185016 -1.04022 -1.04022 -0 -0 0 -1.04022 -1.04022 -1.05058 -0.202206 -0.202206 -1.05058 -1.05058 -0 -0 0 -1.05058 -1.05058 0.5 0.614884 0.598445 0 0.5 -0.541448 -0.541448 -0.503953 -1.0454 -1.0454 
2.751 2 1 1 0 3.205405 -0.385991 -8.031494 -1.0359 -1.0462 -0.1891 -0.1979 0.6123 -0.0240 0.005182 -0.609861 -1.03585 -0.189148 -0.189148 -1.03585 -1.03585 -0 -0 0 -1.03585 -1.03585 -1.04622 -0.197946 -0.197946 -1.04622 -1.04622 -0 -0 0 -1.04622 -1.04622 0.5 0.612876 0.59619 0 0.5 -0.529046 -0.529046 -0.51199 -1.04104 -1.04104 
2.761 2 1 1 0 3.979785 -0.673687 -9.477162 -1.0362 -1.0414 -0.2015 -0.1929 0.6105 -0.0240 0.002591 -0.609290 -1.0362 -0.201475 -0.201475 -1.0362 -1.0362 -0 -0 0 -1.0362 -1.0362 -1.04139 -0.192899 -0.192899 -1.04139 -1.04139 -0 -0 0 -1.04139 -1.04139 0.5 0.611069 0.594352 0 0.5 -0.518939 -0.518939 -0.519856 -1.03879 -1.03879 
2.771 2 1 1 0 4.545586 0.184604 -8.873003 -1.0321 -1.0321 -0.1701 -0.2046 0.6082 -0.0240 0.000000 -0.609582 -1.0321 -0.170111 -0.170111 -1.0321 -1.0321 -0 -0 0 -1.0321 -1.0321 -1.0321 -0.204619 -0.204619 -1.0321 -1.0321 -0 -0 0 -1.0321 -1.0321 0.5 0.60886 0.591741 0 0.5 -0.504575 -0.504575 -0.527528 -1.0321 -1.0321 
2.781 2 1 1 0 4.341802 0.899048 -8.311996 -1.0275 -1.0275 -0.2199 -0.2276 0.6062 -0.0240 0.000000 -0.609497 -1.02755 -0.219912 -0.219912 -1.02755 -1.02755 -0 -0 0 -1.02755 -1.02755 -1.02755 -0.227624 -0.227624 -1.02755 -1.02755 -0 -0 0 -1.02755 -1.02755 0.5 0.606852 0.58955 0 0.5 -0.492527 -0.492527 -0.53502 -1.02755 -1.02755 
2.791 2 1 1 0 3.296509 -0.385991 -8.899375 -1.0233 -1.0181 -0.1836 -0.2241 0.6040 -0.0240 -0.002591 -0.609030 -1.02332 -0.183614 -0.183614 -1.02332 -1.02332 -0 -0 0 -1.02332 -1.02332 -1.01813 -0.2241 -0.2241 -1.01813 -1.01813 -0 -0 0 -1.01813 -1.01813 0.5 0.604643 0.586982 0 0.5 -0.478402 -0.478402 -0.542324 -1.02073 -1.02073 
2.801 2 1 1 0 3.668115 -0.357222 -9.268583 -1.0186 -1.0135 -0.2073 -0.1973 0.6020 -0.0240 -0.002591 -0.609181 -1.01865 -0.207272 -0.207272 -1.01865 -1.01865 -0 -0 0 -1.01865 -1.01865 -1.01346 -0.197346 -0.197346 -1.01346 -1.01346 -0 -0 0 -1.01346 -1.01346 0.5 0.602635 0.58484 0 0.5 -0.466619 -0.466619 -0.549435 -1.01605 -1.01605 
2.811 2 1 1 0 4.161992 -0.187002 -8.590102 -1.0139 -1.0087 -0.2039 -0.2305 0.6000 -0.0240 -0.002591 -0.609081 -1.0139 -0.203922 -0.203922 -1.0139 -1.0139 -0 -0 0 -1.0139 -1.0139 -1.00872 -0.230454 -0.230454 -1.00872 -1.00872 -0 -0 0 -1.00872 -1.00872 0.5 0.600627 0.582718 0 0.5 -0.454947 -0.454947 -0.55636 -1.01131 -1.01131 
2.821 2 1 1 0 4.380161 0.062334 -8.741142 -1.0095 -0.9991 -0.2003 -0.2285 0.5978 -0.0240 -0.005182 -0.609125 -1.00947 -0.200315 -0.200315 -1.00947 -1.00947 -0 -0 0 -1.00947 -1.00947 -0.99911 -0.228493 -0.228493 -0.99911 -0.99911 -0 -0 0 -0.99911 -0.99911 0.5 0.598418 0.580219 0 0.5 -0.441203 -0.441203 -0.56309 -1.00429 -1.00429 
2.831 2 1 1 0 4.303442 0.234951 -8.259253 -1.0046 -0.9942 -0.1913 -0.2042 0.5958 -0.0240 -0.005182 -0.609053 -1.00458 -0.191272 -0.191272 -1.00458 -1.00458 -0 -0 0 -1.00458 -1.00458 -0.994217 -0.204172 -0.204172 -0.994217 -0.994217 -0 -0 0 -0.994217 -0.994217 0.5 0.59641 0.57814 0 0.5 -0.429767 -0.429767 -0.569632 -0.999399 -0.999399 
2.841 2 1 1 0 4.272275 -0.508262 -8.731552 -1.0000 -0.9844 -0.2146 -0.2209 0.5936 -0.0240 -0.007773 -0.609360 -0.999973 -0.214595 -0.214595 -0.999973 -0.999973 -0 -0 0 -0.999973 -0.999973 -0.984426 -0.220895 -0.220895 -0.984426 -0.984426 -0 -0 0 -0.984426 -0.984426 0.5 0.594201 0.575675 0 0.5 -0.416212 -0.416212 -0.575988 -0.992199 -0.992199 
2.851 2 1 1 0 3.823950 0.189399 -9.436406 -0.9953 -0.9746 -0.1907 -0.2350 0.5914 -0.0240 -0.010364 -0.609271 -0.99528 -0.190701 -0.190701 -0.99528 -0.99528 -0 -0 0 -0.99528 -0.99528 -0.974551 -0.234971 -0.234971 -0.974551 -0.974551 -0 -0 0 -0.974551 -0.974551 0.5 0.591992 0.57323 0 0.5 -0.402764 -0.402764 -0.582151 -0.984915 -0.984915 
2.861 2 1 1 0 3.047173 1.102832 -7.626323 -0.9901 -0.9694 -0.2215 -0.2220 0.5894 -0.0239 -0.010364 -0.608624 -0.990133 -0.221474 -0.221474 -0.990133 -0.990133 -0 -0 0 -0.990133 -0.990133 -0.969404 -0.221994 -0.221994 -0.969404 -0.969404 -0 -0 0 -0.969404 -0.969404 0.5 0.589984 0.57121 0 0.5 -0.391654 -0.391654 -0.588115 -0.979769 -0.979769 
2.871 2 1 1 0 4.648676 0.237349 -7.873261 -0.9852 -0.9593 -0.1946 -0.2289 0.5872 -0.0239 -0.012956 -0.609111 -0.985242 -0.194625 -0.194625 -0.985242 -0.985242 -0 -0 0 -0.985242 -0.985242 -0.959331 -0.228867 -0.228867 -0.959331 -0.959331 -0 -0 0 -0.959331 -0.959331 0.5 0.587775 0.568798 0 0.5 -0.378389 -0.378389 -0.593898 -0.972287 -0.972287 
2.881 2 1 1 0 3.636948 -1.090845 -8.865810 -0.9799 -0.9540 -0.2004 -0.2070 0.5852 -0.0239 -0.012956 -0.609919 -0.979863 -0.20039 -0.20039 -0.979863 -0.979863 -0 -0 0 -0.979863 -0.979863 -0.953952 -0.20696 -0.20696 -0.953952 -0.953952 -0 -0 0 -0.953952 -0.953952 0.5 0.585767 0.566803 0 0.5 -0.367418 -0.367418 -0.59949 -0.966908 -0.966908 
2.891 2 1 1 0 3.279727 -1.160371 -9.220634 -0.9747 -0.9436 -0.2118 -0.2284 0.5829 -0.0239 -0.015547 -0.609705 -0.97474 -0.211762 -0.211762 -0.97474 -0.97474 -0 -0 0 -0.97474 -0.97474 -0.943647 -0.22839 -0.22839 -0.943647 -0.943647 -0 -0 0 -0.943647 -0.943647 0.5 0.583558 0.564417 0 0.5 -0.354294 -0.354294 -0.6049 -0.959193 -0.959193 
2.901 2 1 1 0 4.341802 -0.194194 -9.704922 -0.9691 -0.9380 -0.2100 -0.2245 0.5809 -0.0238 -0.015547 -0.610157 -0.9691 -0.210032 -0.210032 -0.9691 -0.9691 -0 -0 0 -0.9691 -0.9691 -0.938007 -0.224475 -0.224475 -0.938007 -0.938007 -0 -0 0 -0.938007 -0.938007 0.5 0.58155 0.562441 0 0.5 -0.343425 -0.343425 -0.610128 -0.953553 -0.953553 
2.911 2 1 1 0 4.133223 0.592173 -8.096226 -0.9589 -0.9278 -0.2301 -0.2284 0.5785 -0.0238 -0.015547 -0.611052 -0.9589 -0.230119 -0.230119 -0.9589 -0.9589 -0 -0 0 -0.9589 -0.9589 -0.927807 -0.228368 -0.228368 -0.927807 -0.927807 -0 -0 0 -0.927807 -0.927807 0.5 0.57914 0.559669 0 0.5 -0.328177 -0.328177 -0.615176 -0.943353 -0.943353 
2.921 2 1 1 0 3.766411 0.165425 -8.379126 -0.9530 -0.9219 -0.2194 -0.2334 0.5765 -0.0238 -0.015547 -0.611820 -0.953021 -0.219352 -0.219352 -0.953021 -0.953021 -0 -0 0 -0.953021 -0.953021 -0.921928 -0.23344 -0.23344 -0.921928 -0.921928 -0 -0 0 -0.921928 -0.921928 0.5 0.577132 0.557718 0 0.5 -0.317448 -0.317448 -0.620027 -0.937475 -0.937475 
2.931 2 1 1 0 4.665459 -0.292490 -9.314136 -0.9474 -0.9111 -0.2155 -0.2451 0.5743 -0.0237 -0.018138 -0.611401 -0.947421 -0.215545 -0.215545 -0.947421 -0.947421 -0 -0 0 -0.947421 -0.947421 -0.911146 -0.245098 -0.245098 -0.911146 -0.911146 -0 -0 0 -0.911146 -0.911146 0.5 0.574923 0.555383 0 0.5 -0.304605 -0.304605 -0.624678 -0.929283 -0.929283 
2.941 2 1 1 0 4.363379 0.119873 -7.592759 -0.9369 -0.9006 -0.2240 -0.2142 0.5719 -0.0237 -0.018138 -0.611500 -0.936881 -0.224037 -0.224037 -0.936881 -0.936881 -0 -0 0 -0.936881 -0.936881 -0.900605 -0.214204 -0.214204 -0.900605 -0.900605 -0 -0 0 -0.900605 -0.900605 0.5 0.572514 0.552654 0 0.5 -0.289597 -0.289597 -0.629146 -0.918743 -0.918743 
2.951 2 1 1 0 3.991772 0.112681 -9.014453 -0.9306 -0.8943 -0.2167 -0.2239 0.5699 -0.0236 -0.018138 -0.611683 -0.930622 -0.216723 -0.216723 -0.930622 -0.930622 -0 -0 0 -0.930622 -0.930622 -0.894347 -0.223917 -0.223917 -0.894347 -0.894347 -0 -0 0 -0.894347 -0.894347 0.5 0.570506 0.550738 0 0.5 -0.27906 -0.27906 -0.633425 -0.912485 -0.912485 
2.961 2 1 1 0 4.185966 -0.064731 -9.163095 -0.9246 -0.8831 -0.2093 -0.2295 0.5677 -0.0236 -0.020729 -0.611522 -0.92459 -0.209338 -0.209338 -0.92459 -0.92459 -0 -0 0 -0.92459 -0.92459 -0.883132 -0.229499 -0.229499 -0.883132 -0.883132 -0 -0 0 -0.883132 -0.883132 0.5 0.568297 0.548425 0 0.5 -0.266337 -0.266337 -0.637524 -0.903861 -0.903861 
2.971 2 1 1 0 4.581548 0.510659 -7.508847 -0.9184 -0.8718 -0.2083 -0.2295 0.5655 -0.0235 -0.023320 -0.612074 -0.918423 -0.208329 -0.208329 -0.918423 -0.918423 -0 -0 0 -0.918423 -0.918423 -0.871783 -0.229467 -0.229467 -0.871783 -0.871783 -0 -0 0 -0.871783 -0.871783 0.5 0.566088 0.546122 0 0.5 -0.253669 -0.253669 -0.641433 -0.895103 -0.895103 
2.981 2 1 1 0 3.771206 0.237349 -9.460381 -0.9069 -0.8655 -0.2147 -0.2159 0.5633 -0.0235 -0.020729 -0.611991 -0.906914 -0.214734 -0.214734 -0.906914 -0.906914 -0 -0 0 -0.906914 -0.906914 -0.865456 -0.215946 -0.215946 -0.865456 -0.865456 -0 -0 0 -0.865456 -0.865456 0.5 0.563879 0.543822 0 0.5 -0.241023 -0.241023 -0.645162 -0.886185 -0.886185 
2.991 2 1 1 0 4.092466 -0.472300 -8.429472 -0.9005 -0.8538 -0.2189 -0.2257 0.5611 -0.0234 -0.023320 -0.612353 -0.900454 -0.218869 -0.218869 -0.900454 -0.900454 -0 -0 0 -0.900454 -0.900454 -0.853814 -0.225721 -0.225721 -0.853814 -0.853814 -0 -0 0 -0.853814 -0.853814 0.5 0.56167 0.541534 0 0.5 -0.228436 -0.228436 -0.648698 -0.877134 -0.877134 
3.001 2 1 1 0 4.356186 -0.445928 -8.558935 -0.8934 -0.8468 -0.2063 -0.2302 0.5591 -0.0234 -0.023320 -0.613078 -0.893442 -0.2063 -0.2063 -0.893442 -0.893442 -0 -0 0 -0.893442 -0.893442 -0.846801 -0.230212 -0.230212 -0.846801 -0.846801 -0 -0 0 -0.846801 -0.846801 0.5 0.559662 0.539648 0 0.5 -0.218064 -0.218064 -0.652057 -0.870121 -0.870121 
3.011 2 1 1 0 3.891079 -0.117476 -9.855962 -0.8867 -0.8348 -0.2370 -0.2263 0.5568 -0.0233 -0.025911 -0.612519 -0.886671 -0.23704 -0.23704 -0.886671 -0.886671 -0 -0 0 -0.886671 -0.886671 -0.834849 -0.226272 -0.226272 -0.834849 -0.834849 -0 -0 0 -0.834849 -0.834849 0.5 0.557453 0.53737 0 0.5 -0.205534 -0.205534 -0.655226 -0.86076 -0.86076 
3.021 2 1 1 0 3.943823 -0.158232 -8.031494 -0.8745 -0.8279 -0.2174 -0.2040 0.5546 -0.0233 -0.023320 -0.612833 -0.874538 -0.217447 -0.217447 -0.874538 -0.874538 -0 -0 0 -0.874538 -0.874538 -0.827898 -0.204 -0.204 -0.827898 -0.827898 -0 -0 0 -0.827898 -0.827898 0.5 0.555244 0.535091 0 0.5 -0.192998 -0.192998 -0.65822 -0.851218 -0.851218 
3.031 2 1 1 0 5.135361 0.026372 -8.510986 -0.8674 -0.8156 -0.2032 -0.2102 0.5524 -0.0232 -0.025911 -0.613558 -0.867429 -0.203242 -0.203242 -0.867429 -0.867429 -0 -0 0 -0.867429 -0.867429 -0.815606 -0.21021 -0.21021 -0.815606 -0.815606 -0 -0 0 -0.815606 -0.815606 0.5 0.553035 0.532816 0 0.5 -0.180489 -0.180489 -0.661029 -0.841518 -0.841518 
3.041 2 1 1 0 3.744834 -0.323657 -8.880195 -0.8597 -0.8079 -0.2093 -0.2242 0.5504 -0.0232 -0.025911 -0.612794 -0.859742 -0.209311 -0.209311 -0.859742 -0.859742 -0 -0 0 -0.859742 -0.859742 -0.807919 -0.224235 -0.224235 -0.807919 -0.807919 -0 -0 0 -0.807919 -0.807919 0.5 0.551027 0.530939 0 0.5 -0.170163 -0.170163 -0.663667 -0.833831 -0.833831 
3.051 2 1 1 0 3.128686 -0.642520 -8.654834 -0.8523 -0.7952 -0.1886 -0.2182 0.5482 -0.0231 -0.028502 -0.612850 -0.852252 -0.188604 -0.188604 -0.852252 -0.852252 -0 -0 0 -0.852252 -0.852252 -0.795248 -0.218244 -0.218244 -0.795248 -0.795248 -0 -0 0 -0.795248 -0.795248 0.5 0.548818 0.528658 0 0.5 -0.157617 -0.157617 -0.666133 -0.82375 -0.82375 
3.061 2 1 1 0 4.375366 -0.246938 -9.338110 -0.8442 -0.7872 -0.2026 -0.1946 0.5462 -0.0231 -0.028502 -0.613996 -0.844166 -0.202593 -0.202593 -0.844166 -0.844166 -0 -0 0 -0.844166 -0.844166 -0.787162 -0.194554 -0.194554 -0.787162 -0.787162 -0 -0 0 -0.787162 -0.787162 0.5 0.54681 0.526768 0 0.5 -0.147226 -0.147226 -0.668438 -0.815664 -0.815664 
3.071 2 1 1 0 3.927041 0.302080 -7.854082 -0.8406 -0.7785 -0.1921 -0.2124 0.5444 -0.0230 -0.031093 -0.614086 -0.840643 -0.192088 -0.192088 -0.840643 -0.840643 -0 -0 0 -0.840643 -0.840643 -0.778456 -0.212387 -0.212387 -0.778456 -0.778456 -0 -0 0 -0.778456 -0.778456 0.5 0.545003 0.525265 0 0.5 -0.138957 -0.138957 -0.670592 -0.809549 -0.809549 
3.081 2 1 1 0 4.034926 -0.472300 -8.920952 -0.8321 -0.7699 -0.1903 -0.2062 0.5424 -0.0229 -0.031093 -0.614155 -0.832118 -0.190272 -0.190272 -0.832118 -0.832118 -0 -0 0 -0.832118 -0.832118 -0.769931 -0.206155 -0.206155 -0.769931 -0.769931 -0 -0 0 -0.769931 -0.769931 0.5 0.542995 0.523353 0 0.5 -0.128442 -0.128442 -0.672583 -0.801025 -0.801025 
3.091 2 1 1 0 4.550381 -0.270913 -8.918554 -0.8234 -0.7612 -0.2039 -0.2135 0.5404 -0.0229 -0.031093 -0.615026 -0.82338 -0.203905 -0.203905 -0.82338 -0.82338 -0 -0 0 -0.82338 -0.82338 -0.761193 -0.213483 -0.213483 -0.761193 -0.761193 -0 -0 0 -0.761193 -0.761193 0.5 0.540987 0.521431 0 0.5 -0.117871 -0.117871 -0.674415 -0.792286 -0.792286 
3.101 2 1 1 0 3.749629 0.002397 -8.659629 -0.8148 -0.7475 -0.1886 -0.2158 0.5382 -0.0228 -0.033685 -0.615196 -0.814839 -0.1886 -0.1886 -0.814839 -0.814839 -0 -0 0 -0.814839 -0.814839 -0.74747 -0.215753 -0.215753 -0.74747 -0.74747 -0 -0 0 -0.74747 -0.74747 0.5 0.538778 0.519104 0 0.5 -0.105074 -0.105074 -0.676081 -0.781155 -0.781155 
3.111 2 1 1 0 4.243506 0.273311 -8.666821 -0.8057 -0.7383 -0.2092 -0.1925 0.5362 -0.0227 -0.033685 -0.615739 -0.805716 -0.209152 -0.209152 -0.805716 -0.805716 -0 -0 0 -0.805716 -0.805716 -0.738347 -0.192502 -0.192502 -0.738347 -0.738347 -0 -0 0 -0.738347 -0.738347 0.5 0.53677 0.517172 0 0.5 -0.0944465 -0.0944465 -0.677585 -0.772032 -0.772032 
3.121 2 1 1 0 4.967539 -0.484287 -9.062402 -0.7964 -0.7290 -0.1835 -0.1992 0.5342 -0.0227 -0.033685 -0.616647 -0.796381 -0.183505 -0.183505 -0.796381 -0.796381 -0 -0 0 -0.796381 -0.796381 -0.729012 -0.199235 -0.199235 -0.729012 -0.729012 -0 -0 0 -0.729012 -0.729012 0.5 0.534762 0.51523 0 0.5 -0.0837634 -0.0837634 -0.678933 -0.762697 -0.762697 
3.131 2 1 1 0 3.577012 -0.151040 -9.122338 -0.7868 -0.7195 -0.1989 -0.1961 0.5322 -0.0226 -0.033685 -0.615667 -0.786835 -0.19893 -0.19893 -0.786835 -0.786835 -0 -0 0 -0.786835 -0.786835 -0.719466 -0.196125 -0.196125 -0.719466 -0.719466 -0 -0 0 -0.719466 -0.719466 0.5 0.532754 0.513277 0 0.5 -0.0730238 -0.0730238 -0.680127 -0.753151 -0.753151 
3.141 2 1 1 0 4.003760 0.095898 -8.510986 -0.7815 -0.7141 -0.1917 -0.1890 0.5306 -0.0226 -0.033685 -0.615805 -0.781496 -0.191653 -0.191653 -0.781496 -0.781496 -0 -0 0 -0.781496 -0.781496 -0.714127 -0.189037 -0.189037 -0.714127 -0.714127 -0 -0 0 -0.714127 -0.714127 0.5 0.531147 0.512118 0 0.5 -0.0666463 -0.0666463 -0.681166 -0.747812 -0.747812 
3.151 2 1 1 0 4.742177 -0.318862 -9.225430 -0.7715 -0.7041 -0.1683 -0.2006 0.5285 -0.0225 -0.033685 -0.616737 -0.77149 -0.168311 -0.168311 -0.77149 -0.77149 -0 -0 0 -0.77149 -0.77149 -0.704121 -0.20057 -0.20057 -0.704121 -0.704121 -0 -0 0 -0.704121 -0.704121 0.5 0.529139 0.510134 0 0.5 -0.0557376 -0.0557376 -0.682068 -0.737805 -0.737805 
3.161 2 1 1 0 3.972593 0.584980 -7.846889 -0.7613 -0.6939 -0.1962 -0.1921 0.5265 -0.0224 -0.033685 -0.617201 -0.761267 -0.196205 -0.196205 -0.761267 -0.761267 -0 -0 0 -0.761267 -0.761267 -0.693898 -0.192111 -0.192111 -0.693898 -0.693898 -0 -0 0 -0.693898 -0.693898 0.5 0.527131 0.508138 0 0.5 -0.04476 -0.04476 -0.682822 -0.727582 -0.727582 
3.171 2 1 1 0 4.056504 -0.242144 -9.328520 -0.7556 -0.6831 -0.1809 -0.1931 0.5247 -0.0224 -0.036276 -0.617907 -0.755605 -0.180912 -0.180912 -0.755605 -0.755605 -0 -0 0 -0.755605 -0.755605 -0.683053 -0.193147 -0.193147 -0.683053 -0.683053 -0 -0 0 -0.683053 -0.683053 0.5 0.525324 0.506525 0 0.5 -0.0358897 -0.0358897 -0.68344 -0.719329 -0.719329 
3.181 2 1 1 0 4.478457 -0.062334 -8.618872 -0.74934933 -0.676779 -0.189129 -0.189129 -0.676779 -0.676779 -0 -0 0 -0.676779 -0.676779 0.5 0.523717 0.505298 0 0.5 -0.0291365 -0.0291365 -0.683918 -0.713054 -0.713054 
3.191 2 1 1 0 4.315430 -0.107886 -8.077045 -0.7384 -0.6658 -0.1622 -0.1776 0.5211 -0.0222 -0.036276 -0.618834 -0.738395 -0.162204 -0.162204 -0.738395 -0.738395 -0 -0 0 -0.738395 -0.738395 -0.665843 -0.177615 -0.177615 -0.665843 -0.665843 -0 -0 0 -0.665843 -0.665843 0.5 0.521709 0.503246 0 0.5 -0.0178547 -0.0178547 -0.684264 -0.702119 -0.702119 
3.201 2 1 1 0 4.519214 -0.019180 -9.270981 -0.7320 -0.6543 -0.1721 -0.1898 0.5193 -0.0222 -0.038867 -0.619131 -0.732023 -0.17214 -0.17214 -0.732023 -0.732023 -0 -0 0 -0.732023 -0.732023 -0.65429 -0.189811 -0.189811 -0.65429 -0.65429 -0 -0 0 -0.65429 -0.65429 0.5 0.519902 0.501578 0 0.5 -0.0086782 -0.0086782 -0.684478 -0.693157 -0.693157 
3.211 2 1 1 0 4.348994 0.182207 -8.237676 -0.7251 -0.6473 -0.1650 -0.1788 0.5177 -0.0221 -0.038867 -0.619898 -0.72505 -0.164972 -0.164972 -0.72505 -0.72505 -0 -0 0 -0.72505 -0.72505 -0.647316 -0.178808 -0.178808 -0.647316 -0.647316 -0 -0 0 -0.647316 -0.647316 0.5 0.518296 0.500296 0 0.5 -0.00162733 -0.00162733 -0.684556 -0.686183 -0.686183 
3.221 2 1 1 0 4.260288 -0.232554 -8.959311 -0.7134 -0.6357 -0.1709 -0.1705 0.5157 -0.0220 -0.038867 -0.620317 -0.713444 -0.170901 -0.170901 -0.713444 -0.713444 -0 -0 0 -0.713444 -0.713444 -0.63571 -0.170502 -0.170502 -0.63571 -0.63571 -0 -0 0 -0.63571 -0.63571 0.5 0.516287 0.498196 0 0.5 0.00992 0.00992 -0.684497 -0.674577 -0.674577 
3.231 2 1 1 0 4.061299 0.170220 -8.398305 -0.7060 -0.6283 -0.1740 -0.1710 0.5141 -0.0220 -0.038867 -0.620530 -0.706012 -0.173951 -0.173951 -0.706012 -0.706012 -0 -0 0 -0.706012 -0.706012 -0.628279 -0.171043 -0.171043 -0.628279 -0.628279 -0 -0 0 -0.628279 -0.628279 0.5 0.514681 0.496879 0 0.5 0.0171682 0.0171682 -0.684314 -0.667146 -0.667146 
3.241 2 1 1 0 4.193159 -0.263721 -8.693193 -0.6984 -0.6206 -0.1703 -0.1624 0.5125 -0.0219 -0.038867 -0.621079 -0.69836 -0.170312 -0.170312 -0.69836 -0.69836 -0 -0 0 -0.69836 -0.69836 -0.620627 -0.162428 -0.162428 -0.620627 -0.620627 -0 -0 0 -0.620627 -0.620627 0.5 0.513075 0.495544 0 0.5 0.0245076 0.0245076 -0.684001 -0.659494 -0.659494 
3.251 2 1 1 0 3.833540 -0.306875 -8.750732 -0.6905 -0.6127 -0.1680 -0.1648 0.5109 -0.0218 -0.038867 -0.621319 -0.690452 -0.168049 -0.168049 -0.690452 -0.690452 -0 -0 0 -0.690452 -0.690452 -0.612718 -0.164803 -0.164803 -0.612718 -0.612718 -0 -0 0 -0.612718 -0.612718 0.5 0.511468 0.494184 0 0.5 0.0319886 0.0319886 -0.683573 -0.651585 -0.651585 
3.261 2 1 1 0 4.416123 0.119873 -8.700385 -0.6823 -0.6046 -0.1515 -0.1643 0.5093 -0.0218 -0.038867 -0.621394 -0.682311 -0.151547 -0.151547 -0.682311 -0.682311 -0 -0 0 -0.682311 -0.682311 -0.604578 -0.164314 -0.164314 -0.604578 -0.604578 -0 -0 0 -0.604578 -0.604578 0.5 0.509862 0.492803 0 0.5 0.0395817 0.0395817 -0.683026 -0.643445 -0.643445 
3.271 2 1 1 0 4.567163 0.383594 -8.182534 -0.6739 -0.5962 -0.1625 -0.1607 0.5077 -0.0217 -0.038867 -0.622062 -0.673905 -0.162535 -0.162535 -0.673905 -0.673905 -0 -0 0 -0.673905 -0.673905 -0.596171 -0.160722 -0.160722 -0.596171 -0.596171 -0 -0 0 -0.596171 -0.596171 0.5 0.508255 0.491394 0 0.5 0.0473354 0.0473354 -0.682374 -0.635038 -0.635038 
3.281 2 1 1 0 4.528803 -0.112681 -8.115405 -0.6653 -0.5875 -0.1525 -0.1727 0.5061 -0.0216 -0.038867 -0.622828 -0.665279 -0.15253 -0.15253 -0.665279 -0.665279 -0 -0 0 -0.665279 -0.665279 -0.587546 -0.172664 -0.172664 -0.587546 -0.587546 -0 -0 0 -0.587546 -0.587546 0.5 0.506649 0.489966 0 0.5 0.0551881 0.0551881 -0.681601 -0.626413 -0.626413 
3.291 2 1 1 0 3.958208 -0.153437 -8.714770 -0.6568 -0.5739 -0.1592 -0.1730 0.5043 -0.0216 -0.041458 -0.622954 -0.656815 -0.159169 -0.159169 -0.656815 -0.656815 -0 -0 0 -0.656815 -0.656815 -0.573899 -0.172955 -0.172955 -0.573899 -0.573899 -0 -0 0 -0.573899 -0.573899 0.5 0.504841 0.488118 0 0.5 0.0653533 0.0653533 -0.680711 -0.615357 -0.615357 
3.301 2 1 1 0 4.365776 0.182207 -8.249662 -0.6526 -0.5645 -0.1472 -0.1691 0.5029 -0.0215 -0.044049 -0.623390 -0.652577 -0.147151 -0.147151 -0.652577 -0.652577 -0 -0 0 -0.652577 -0.652577 -0.564479 -0.169149 -0.169149 -0.564479 -0.564479 -0 -0 0 -0.564479 -0.564479 0.5 0.503436 0.487061 0 0.5 0.0711663 0.0711663 -0.679694 -0.608528 -0.608528 
3.311 2 1 1 0 4.166787 0.023975 -8.695591 -0.6433 -0.5552 -0.1356 -0.1626 0.5013 -0.0214 -0.044049 -0.623708 -0.643296 -0.135577 -0.135577 -0.643296 -0.643296 -0 -0 0 -0.643296 -0.643296 -0.555198 -0.162642 -0.162642 -0.555198 -0.555198 -0 -0 0 -0.555198 -0.555198 0.5 0.501829 0.485577 0 0.5 0.0793239 0.0793239 -0.678571 -0.599247 -0.599247 
3.321 2 1 1 0 4.262685 -0.088706 -8.398305 -0.6338 -0.5457 -0.1464 -0.1615 0.4996 -0.0214 -0.044049 -0.624188 -0.633801 -0.146404 -0.146404 -0.633801 -0.633801 -0 -0 0 -0.633801 -0.633801 -0.545703 -0.161468 -0.161468 -0.545703 -0.545703 -0 -0 0 -0.545703 -0.545703 0.5 0.500223 0.484076 0 0.5 0.0875832 0.0875832 -0.677335 -0.589752 -0.589752 
3.331 2 1 1 0 4.382558 -0.146245 -9.062402 -0.6289 -0.5356 -0.1359 -0.1513 0.4982 -0.0213 -0.046640 -0.624429 -0.628888 -0.135854 -0.135854 -0.628888 -0.628888 -0 -0 0 -0.628888 -0.628888 -0.535608 -0.151314 -0.151314 -0.535608 -0.535608 -0 -0 0 -0.535608 -0.535608 0.5 0.498817 0.482956 0 0.5 0.0937411 0.0937411 -0.675989 -0.582248 -0.582248 
3.341 2 1 1 0 4.221929 -0.131860 -8.288022 -0.6186 -0.5305 -0.1562 -0.1413 0.4968 -0.0212 -0.044049 -0.624735 -0.618573 -0.156241 -0.156241 -0.618573 -0.618573 -0 -0 0 -0.618573 -0.618573 -0.530475 -0.141299 -0.141299 -0.530475 -0.530475 -0 -0 0 -0.530475 -0.530475 0.5 0.497411 0.481816 0 0.5 0.100012 0.100012 -0.674536 -0.574524 -0.574524 
3.351 2 1 1 0 4.329814 0.091104 -8.681206 -0.6132 -0.5199 -0.1288 -0.1385 0.4954 -0.0212 -0.046640 -0.624945 -0.613213 -0.128848 -0.128848 -0.613213 -0.613213 -0 -0 0 -0.613213 -0.613213 -0.519932 -0.138471 -0.138471 -0.519932 -0.519932 -0 -0 0 -0.519932 -0.519932 0.5 0.496006 0.480653 0 0.5 0.106409 0.106409 -0.672981 -0.566573 -0.566573 
3.361 2 1 1 0 4.598330 -0.177412 -8.220893 -0.6024 -0.5143 -0.1460 -0.1550 0.4940 -0.0211 -0.044049 -0.625537 -0.602422 -0.145977 -0.145977 -0.602422 -0.602422 -0 -0 0 -0.602422 -0.602422 -0.514324 -0.155012 -0.155012 -0.514324 -0.514324 -0 -0 0 -0.514324 -0.514324 0.5 0.4946 0.479461 0 0.5 0.112963 0.112963 -0.671336 -0.558373 -0.558373 
3.371 2 1 1 0 4.514419 0.215771 -8.482217 -0.5966 -0.5033 -0.1365 -0.1402 0.4926 -0.0210 -0.046640 -0.625926 -0.59662 -0.136516 -0.136516 -0.59662 -0.59662 -0 -0 0 -0.59662 -0.59662 -0.50334 -0.140179 -0.140179 -0.50334 -0.50334 -0 -0 0 -0.50334 -0.50334 0.5 0.493195 0.478254 0 0.5 0.119603 0.119603 -0.669582 -0.54998 -0.54998 
3.381 2 1 1 0 4.612715 -0.035962 -8.642846 -0.5902 -0.4969 -0.1269 -0.1394 0.4914 -0.0210 -0.046640 -0.626232 -0.590205 -0.126864 -0.126864 -0.590205 -0.590205 -0 -0 0 -0.590205 -0.590205 -0.496924 -0.139431 -0.139431 -0.496924 -0.496924 -0 -0 0 -0.496924 -0.496924 0.5 0.49199 0.477423 0 0.5 0.124171 0.124171 -0.667736 -0.543564 -0.543564 
3.391 2 1 1 0 4.248301 -0.177412 -8.371933 -0.5792 -0.4859 -0.1197 -0.1273 0.4898 -0.0209 -0.046640 -0.626734 -0.579181 -0.119733 -0.119733 -0.579181 -0.579181 -0 -0 0 -0.579181 -0.579181 -0.485901 -0.127274 -0.127274 -0.485901 -0.485901 -0 -0 0 -0.485901 -0.485901 0.5 0.490383 0.475774 0 0.5 0.133242 0.133242 -0.665783 -0.532541 -0.532541 
3.401 2 1 1 0 4.329814 0.088706 -9.172686 -0.5723 -0.4790 -0.1162 -0.1310 0.4886 -0.0209 -0.046640 -0.626759 -0.572296 -0.116247 -0.116247 -0.572296 -0.572296 -0 -0 0 -0.572296 -0.572296 -0.479015 -0.130955 -0.130955 -0.479015 -0.479015 -0 -0 0 -0.479015 -0.479015 0.5 0.489178 0.47489 0 0.5 0.138108 0.138108 -0.663763 -0.525655 -0.525655 
3.411 2 1 1 0 4.452085 0.117476 -7.662285 -0.5652 -0.4719 -0.1306 -0.1362 0.4874 -0.0208 -0.046640 -0.627318 -0.565175 -0.130632 -0.130632 -0.565175 -0.565175 -0 -0 0 -0.565175 -0.565175 -0.471894 -0.136186 -0.136186 -0.471894 -0.471894 -0 -0 0 -0.471894 -0.471894 0.5 0.487974 0.473977 0 0.5 0.143127 0.143127 -0.661662 -0.518535 -0.518535 
3.421 2 1 1 0 4.468867 -0.002397 -9.105556 -0.5582 -0.4598 -0.1193 -0.1316 0.4860 -0.0207 -0.049231 -0.627635 -0.558249 -0.119313 -0.119313 -0.558249 -0.558249 -0 -0 0 -0.558249 -0.558249 -0.459786 -0.131608 -0.131608 -0.459786 -0.459786 -0 -0 0 -0.459786 -0.459786 0.5 0.486568 0.472646 0 0.5 0.150445 0.150445 -0.659463 -0.509018 -0.509018 
3.431 2 1 1 0 4.289057 -0.119873 -8.148970 -0.5507 -0.4523 -0.1141 -0.1393 0.4848 -0.0207 -0.049231 -0.628052 -0.55073 -0.114133 -0.114133 -0.55073 -0.55073 -0 -0 0 -0.55073 -0.55073 -0.452267 -0.139312 -0.139312 -0.452267 -0.452267 -0 -0 0 -0.452267 -0.452267 0.5 0.485363 0.471695 0 0.5 0.155679 0.155679 -0.657178 -0.501499 -0.501499 
3.441 2 1 1 0 4.269878 -0.100693 -8.784297 -0.5430 -0.4446 -0.1374 -0.1184 0.4836 -0.0206 -0.049231 -0.628512 -0.543013 -0.137397 -0.137397 -0.543013 -0.543013 -0 -0 0 -0.543013 -0.543013 -0.444551 -0.118425 -0.118425 -0.444551 -0.444551 -0 -0 0 -0.444551 -0.444551 0.5 0.484158 0.470723 0 0.5 0.161022 0.161022 -0.654804 -0.493782 -0.493782 
3.451 2 1 1 0 4.428110 -0.119873 -8.520576 -0.5351 -0.4366 -0.1047 -0.1211 0.4824 -0.0205 -0.049231 -0.628987 -0.535101 -0.104727 -0.104727 -0.535101 -0.535101 -0 -0 0 -0.535101 -0.535101 -0.436638 -0.121052 -0.121052 -0.436638 -0.436638 -0 -0 0 -0.436638 -0.436638 0.5 0.482953 0.469732 0 0.5 0.166472 0.166472 -0.652342 -0.48587 -0.48587 
3.461 2 1 1 0 4.298647 -0.246938 -8.374331 -0.5270 -0.4285 -0.1229 -0.1171 0.4812 -0.0205 -0.049231 -0.629526 -0.526965 -0.122862 -0.122862 -0.526965 -0.526965 -0 -0 0 -0.526965 -0.526965 -0.428502 -0.117123 -0.117123 -0.428502 -0.428502 -0 -0 0 -0.428502 -0.428502 0.5 0.481748 0.468714 0 0.5 0.172074 0.172074 -0.649807 -0.477733 -0.477733 
3.471 2 1 1 0 3.989375 -0.189399 -9.153505 -0.5234 -0.4198 -0.1073 -0.1029 0.4802 -0.0204 -0.051822 -0.629488 -0.523428 -0.107269 -0.107269 -0.523428 -0.523428 -0 -0 0 -0.523428 -0.523428 -0.419783 -0.102868 -0.102868 -0.419783 -0.419783 -0 -0 0 -0.419783 -0.419783 0.5 0.480744 0.468075 0 0.5 0.175587 0.175587 -0.647192 -0.471606 -0.471606 
3.481 2 1 1 0 4.298647 -0.222964 -8.113008 -0.5145 -0.4160 -0.0866 -0.1055 0.4792 -0.0204 -0.049231 -0.630088 -0.514452 -0.0866394 -0.0866394 -0.514452 -0.514452 -0 -0 0 -0.514452 -0.514452 -0.415989 -0.105474 -0.105474 -0.415989 -0.415989 -0 -0 0 -0.415989 -0.415989 0.5 0.47974 0.4674 0 0.5 0.179303 0.179303 -0.644523 -0.465221 -0.465221 
3.491 2 1 1 0 4.718203 -0.067129 -8.570923 -0.5104 -0.4068 -0.0955 -0.1054 0.4782 -0.0203 -0.051822 -0.631053 -0.510418 -0.0954704 -0.0954704 -0.510418 -0.510418 -0 -0 0 -0.510418 -0.510418 -0.406773 -0.10539 -0.10539 -0.406773 -0.406773 -0 -0 0 -0.406773 -0.406773 0.5 0.478736 0.466691 0 0.5 0.183202 0.183202 -0.641797 -0.458595 -0.458595 
3.501 2 1 1 0 4.411328 -0.110283 -8.590102 -0.5014 -0.3978 -0.1185 -0.1078 0.4770 -0.0203 -0.051822 -0.631507 -0.501395 -0.118491 -0.118491 -0.501395 -0.501395 -0 -0 0 -0.501395 -0.501395 -0.39775 -0.107759 -0.107759 -0.39775 -0.39775 -0 -0 0 -0.39775 -0.39775 0.5 0.477531 0.465559 0 0.5 0.189424 0.189424 -0.638996 -0.449573 -0.449573 
3.511 2 1 1 0 4.337007 0.167822 -8.482217 -0.4966 -0.3930 -0.0951 -0.1107 0.4762 -0.0202 -0.051822 -0.632110 -0.496603 -0.095149 -0.095149 -0.496603 -0.496603 -0 -0 0 -0.496603 -0.496603 -0.392958 -0.110655 -0.110655 -0.392958 -0.392958 -0 -0 0 -0.392958 -0.392958 0.5 0.476728 0.46521 0 0.5 0.191344 0.191344 -0.636124 -0.44478 -0.44478 
3.521 2 1 1 0 4.087671 -0.076719 -8.923349 -0.4872 -0.3835 -0.0924 -0.1043 0.4750 -0.0202 -0.051822 -0.632357 -0.487186 -0.0923991 -0.0923991 -0.487186 -0.487186 -0 -0 0 -0.487186 -0.487186 -0.383541 -0.104317 -0.104317 -0.383541 -0.383541 -0 -0 0 -0.383541 -0.383541 0.5 0.475523 0.464032 0 0.5 0.197826 0.197826 -0.63319 -0.435364 -0.435364 
3.531 2 1 1 0 4.068491 -0.088706 -8.359946 -0.4772 -0.3787 -0.1183 -0.0918 0.4740 -0.0201 -0.049231 -0.633069 -0.477202 -0.118336 -0.118336 -0.477202 -0.477202 -0 -0 0 -0.477202 -0.477202 -0.378739 -0.0917736 -0.0917736 -0.378739 -0.378739 -0 -0 0 -0.378739 -0.378739 0.5 0.474519 0.463233 0 0.5 0.202218 0.202218 -0.630188 -0.42797 -0.42797 
3.541 2 1 1 0 4.411328 0.117476 -9.556279 -0.4722 -0.3686 -0.0812 -0.0946 0.4730 -0.0201 -0.051822 -0.633155 -0.472209 -0.08121 -0.08121 -0.472209 -0.472209 -0 -0 0 -0.472209 -0.472209 -0.368564 -0.0945665 -0.0945665 -0.368564 -0.368564 -0 -0 0 -0.368564 -0.368564 0.5 0.473515 0.462412 0 0.5 0.206736 0.206736 -0.627123 -0.420387 -0.420387 
3.551 2 1 1 0 4.454482 0.294888 -7.681465 -0.4666 -0.3630 -0.0775 -0.1000 0.4722 -0.0200 -0.051822 -0.633717 -0.466599 -0.0775124 -0.0775124 -0.466599 -0.466599 -0 -0 0 -0.466599 -0.466599 -0.362954 -0.0999821 -0.0999821 -0.362954 -0.362954 -0 -0 0 -0.362954 -0.362954 0.5 0.472712 0.461956 0 0.5 0.209241 0.209241 -0.624017 -0.414776 -0.414776 
3.561 2 1 1 0 4.329814 -0.246938 -8.774707 -0.4608 -0.3571 -0.0994 -0.0852 0.4714 -0.0200 -0.051822 -0.634483 -0.460787 -0.0993975 -0.0993975 -0.460787 -0.460787 -0 -0 0 -0.460787 -0.460787 -0.357142 -0.0851545 -0.0851545 -0.357142 -0.357142 -0 -0 0 -0.357142 -0.357142 0.5 0.471909 0.461474 0 0.5 0.211894 0.211894 -0.620859 -0.408964 -0.408964 
3.571 2 1 1 0 4.454482 -0.184604 -8.417485 -0.4548 -0.3511 -0.0985 -0.0876 0.4706 -0.0199 -0.051822 -0.634805 -0.454795 -0.0985278 -0.0985278 -0.454795 -0.454795 -0 -0 0 -0.454795 -0.454795 -0.35115 -0.0875912 -0.0875912 -0.35115 -0.35115 -0 -0 0 -0.35115 -0.35115 0.5 0.471106 0.460969 0 0.5 0.214671 0.214671 -0.617643 -0.402972 -0.402972 
3.581 2 1 1 0 4.444892 0.136655 -8.381523 -0.4490 -0.3402 -0.0803 -0.0945 0.4696 -0.0199 -0.054414 -0.635234 -0.449018 -0.0803315 -0.0803315 -0.449018 -0.449018 -0 -0 0 -0.449018 -0.449018 -0.340191 -0.0944979 -0.0944979 -0.340191 -0.340191 -0 -0 0 -0.340191 -0.340191 0.5 0.470102 0.460043 0 0.5 0.219762 0.219762 -0.614367 -0.394605 -0.394605 
3.591 2 1 1 0 4.435303 0.148643 -8.741142 -0.4427 -0.3339 -0.0779 -0.0959 0.4688 -0.0198 -0.054414 -0.635284 -0.442681 -0.0778807 -0.0778807 -0.442681 -0.442681 -0 -0 0 -0.442681 -0.442681 -0.333854 -0.0958644 -0.0958644 -0.333854 -0.333854 -0 -0 0 -0.333854 -0.333854 0.5 0.469298 0.459496 0 0.5 0.222771 0.222771 -0.611038 -0.388268 -0.388268 
3.601 2 1 1 0 4.430508 -0.119873 -8.139380 -0.4314 -0.3277 -0.0946 -0.0668 0.4678 -0.0198 -0.051822 -0.635935 -0.431369 -0.0946241 -0.0946241 -0.431369 -0.431369 -0 -0 0 -0.431369 -0.431369 -0.327724 -0.066794 -0.066794 -0.327724 -0.327724 -0 -0 0 -0.327724 -0.327724 0.5 0.468294 0.458525 0 0.5 0.228112 0.228112 -0.607658 -0.379546 -0.379546 
3.611 2 1 1 0 4.423316 -0.160630 -10.028579 -0.4295 -0.3206 -0.0744 -0.0752 0.4672 -0.0198 -0.054414 -0.635142 -0.429462 -0.0743633 -0.0743633 -0.429462 -0.429462 -0 -0 0 -0.429462 -0.429462 -0.320635 -0.0752222 -0.0752222 -0.320635 -0.320635 -0 -0 0 -0.320635 -0.320635 0.5 0.467692 0.458329 0 0.5 0.229188 0.229188 -0.604237 -0.375049 -0.375049 
3.621 2 1 1 0 4.948359 0.165425 -7.674272 -0.4273 -0.3133 -0.0520 -0.0860 0.4666 -0.0197 -0.057005 -0.636079 -0.427335 -0.0519689 -0.0519689 -0.427335 -0.427335 -0 -0 0 -0.427335 -0.427335 -0.313325 -0.0859886 -0.0859886 -0.313325 -0.313325 -0 -0 0 -0.313325 -0.313325 0.5 0.467089 0.458099 0 0.5 0.230458 0.230458 -0.600788 -0.37033 -0.37033 
3.631 2 1 1 0 4.545586 -0.187002 -9.362084 -0.4250 -0.3058 -0.0373 -0.0818 0.4660 -0.0197 -0.059596 -0.636673 -0.42498 -0.0372958 -0.0372958 -0.42498 -0.42498 -0 -0 0 -0.42498 -0.42498 -0.305788 -0.0817888 -0.0817888 -0.305788 -0.305788 -0 -0 0 -0.305788 -0.305788 0.5 0.466487 0.45783 0 0.5 0.231934 0.231934 -0.597318 -0.365384 -0.365384 
3.641 2 1 1 0 3.948618 -0.019180 -8.410293 -0.4220 -0.3028 -0.0347 -0.0654 0.4656 -0.0197 -0.059596 -0.636605 -0.422007 -0.0347278 -0.0347278 -0.422007 -0.422007 -0 -0 0 -0.422007 -0.422007 -0.302816 -0.0654381 -0.0654381 -0.302816 -0.302816 -0 -0 0 -0.302816 -0.302816 0.5 0.466085 0.457923 0 0.5 0.231425 0.231425 -0.593837 -0.362411 -0.362411 
3.651 2 1 1 0 4.116440 -0.342837 -8.458241 -0.4144 -0.2952 -0.0631 -0.0597 0.4648 -0.0196 -0.059596 -0.637179 -0.414409 -0.0630769 -0.0630769 -0.414409 -0.414409 -0 -0 0 -0.414409 -0.414409 -0.295217 -0.0597495 -0.0597495 -0.295217 -0.295217 -0 -0 0 -0.295217 -0.295217 0.5 0.465282 0.457178 0 0.5 0.235521 0.235521 -0.590334 -0.354813 -0.354813 
3.661 2 1 1 0 4.483252 0.043154 -8.822656 -0.4067 -0.2875 06 -0.287514 -0.0786361 -0.0786361 -0.287514 -0.287514 -0 -0 0 -0.287514 -0.287514 0.5 0.464479 0.456424 0 0.5 0.239666 0.239666 -0.586776 -0.34711 -0.34711 
3.671 2 1 1 0 3.780796 0.160630 -8.357549 -0.3989 -0.2797 -0.0756 -0.0833 0.4631 -0.0195 -0.059596 -0.637297 -0.398928 -0.0756354 -0.0756354 -0.398928 -0.398928 -0 -0 0 -0.398928 -0.398928 -0.279736 -0.083336 -0.083336 -0.279736 -0.279736 -0 -0 0 -0.279736 -0.279736 0.5 0.463676 0.455669 0 0.5 0.243818 0.243818 -0.58315 -0.339332 -0.339332 
