%% logfile from robot Johanne (48)
% Johanne (48)
%  1    time 0.008 sec
%  2  3  4  5   (mission 0), state 2, entered (thread 1, line 0), events 0x0 (bit-flags)
%  6  7  8 Acc x,y,z [m/s2]: 0.285298 -0.122271 9.96385
%  9 10 Motor velocity ref left, right: 0.0000 0.0000
% 11 12 Wheel velocity [m/s] left, right: -0.0000 0.0000
% 13 14 15 16 Pose x,y,h,tilt [m,m,rad,rad]: 0 0 0 2.95377
% 17 26 ctrl left , ref=0, m=-0, m2=-0, uf=0, r2=0, ep=0,up=0, ui=0, u1=0, u=0
% 27 36 ctrl right, ref=0, m=0, m2=0, uf=0, r2=0, ep=0,up=0, ui=0, u1=0, u=0
% 37 46 ctrl pos, ref=0, m=-2.95223e+19, m2=4.21634e-18, uf=-5.56935e-18, r2=1.03711e-13, ep=5.70387e-13,up=-1.11086e+20, ui=0, u1=6.23139e+35, u=-5.06195e-11
0.008 2 1 0 0 0.285298 -0.122271 9.963847 0.0000 0.0000 -0.0000 0.0000 0.0000 0.0000 0.000000 2.953773 0 -0 -0 0 0 0 0 0 0 0 0 0 0 0 0 0 0 0 0 0 0 -2.95223e+19 4.21634e-18 -5.56935e-18 1.03711e-13 5.70387e-13 -1.11086e+20 0 6.23139e+35 -5.06195e-11 
0.018 2 1 0 0 0.316465 -0.105488 10.030976 0.0000 0.0000 -0.0000 0.0000 0.0000 0.0000 0.000000 2.953997 0 -0 -0 0 0 0 0 0 0 0 0 0 0 0 0 0 0 0 0 0 0 -2.95223e+19 4.21634e-18 -5.56935e-18 1.03711e-13 5.70387e-13 -1.11086e+20 0 6.23139e+35 -5.06195e-11 
0.028 2 1 0 0 0.268516 -0.079116 10.040566 0.0000 0.0000 -0.0000 0.0000 0.0000 0.0000 0.000000 2.954178 0 -0 -0 0 0 0 0 0 0 0 0 0 0 0 0 0 0 0 0 0 0 -2.95223e+19 4.21634e-18 -5.56935e-18 1.03711e-13 5.70387e-13 -1.11086e+20 0 6.23139e+35 -5.06195e-11 
0.038 2 1 0 0 0.266118 -0.079116 9.920693 0.0000 0.0000 -0.0000 0.0000 0.0000 0.0000 0.000000 2.954328 0 -0 -0 0 0 0 0 0 0 0 0 0 0 0 0 0 0 0 0 0 0 -2.95223e+19 4.21634e-18 -5.56935e-18 1.03711e-13 5.70387e-13 -1.11086e+20 0 6.23139e+35 -5.06195e-11 
0.048 2 1 0 0 0.282900 -0.069526 10.136464 0.0000 0.0000 -0.0000 0.0000 0.0000 0.0000 0.000000 2.954483 0 -0 -0 0 0 0 0 0 0 0 0 0 0 0 0 0 0 0 0 0 0 -2.95223e+19 4.21634e-18 -5.56935e-18 1.03711e-13 5.70387e-13 -1.11086e+20 0 6.23139e+35 -5.06195e-11 
0.058 2 1 0 0 0.179810 -0.095898 10.090913 0.0000 0.0000 -0.0000 0.0000 0.0000 0.0000 0.000000 2.954547 0 -0 -0 0 0 0 0 0 0 0 0 0 0 0 0 0 0 0 0 0 0 -2.95223e+19 4.21634e-18 -5.56935e-18 1.03711e-13 5.70387e-13 -1.11086e+20 0 6.23139e+35 -5.06195e-11 
0.068 2 1 0 0 0.124668 -0.028770 10.069336 0.0000 0.0000 -0.0000 0.0000 0.0000 0.0000 0.000000 2.954519 0 -0 -0 0 0 0 0 0 0 0 0 0 0 0 0 0 0 0 0 0 0 -2.95223e+19 4.21634e-18 -5.56935e-18 1.03711e-13 5.70387e-13 -1.11086e+20 0 6.23139e+35 -5.06195e-11 
0.078 2 1 0 0 0.026372 -0.110283 10.066938 0.0000 0.0000 -0.0000 0.0000 0.0000 0.0000 0.000000 2.954431 0 -0 -0 0 0 0 0 0 0 0 0 0 0 0 0 0 0 0 0 0 0 -2.95223e+19 4.21634e-18 -5.56935e-18 1.03711e-13 5.70387e-13 -1.11086e+20 0 6.23139e+35 -5.06195e-11 
0.088 2 1 0 0 -0.045552 -0.146245 10.035771 0.0000 0.0000 -0.0000 0.0000 0.0000 0.0000 0.000000 2.954286 0 -0 -0 0 0 0 0 0 0 0 0 0 0 0 0 0 0 0 0 0 0 -2.95223e+19 4.21634e-18 -5.56935e-18 1.03711e-13 5.70387e-13 -1.11086e+20 0 6.23139e+35 -5.06195e-11 
0.098 2 1 0 0 -0.069526 -0.153437 10.093310 0.0000 0.0000 -0.0000 0.0000 0.0000 0.0000 0.000000 2.954112 0 -0 -0 0 0 0 0 0 0 0 0 0 0 0 0 0 0 0 0 0 0 -2.95223e+19 4.21634e-18 -5.56935e-18 1.03711e-13 5.70387e-13 -1.11086e+20 0 6.23139e+35 -5.06195e-11 
0.108 2 1 1 0 -0.043154 -0.119873 10.057348 2.7766 2.7766 0.0000 0.0000 0.0004 0.0000 0.000000 2.953955 2.77658 0 0 2.77658 2.77658 0 0 0 2.77658 2.77658 2.77658 0 0 2.77658 2.77658 0 0 0 2.77658 2.77658 0.5 0.000401624 0.000796918 0 0.5 2.74562 2.74562 0.0309586 2.77658 2.77658 
0.118 2 1 1 0 0.076719 -0.115078 9.954258 2.8141 2.8089 0.0540 0.0960 0.0010 0.0000 0.002591 2.953835 2.81406 0.0539582 0.0539582 2.81406 2.81406 0 0 0 2.81406 2.81406 2.80887 0.095957 0.095957 2.80887 2.80887 0 0 0 2.80887 2.80887 0.5 0.00100406 0.00194411 0 0.5 2.73931 2.73931 0.0721578 2.81147 2.81147 
0.128 2 1 1 0 0.033564 -0.071924 10.349838 2.8383 2.8331 0.1856 0.2127 0.0026 0.0000 0.002591 2.953769 2.83832 0.185643 0.185643 2.83832 2.83832 0 0 0 2.83832 2.83832 2.83314 0.212659 0.212659 2.83314 2.83314 0 0 0 2.83314 2.83314 0.5 0.00261056 0.00499184 0 0.5 2.72254 2.72254 0.113182 2.83573 2.83573 
0.138 2 1 1 0 0.304478 -0.131860 10.011797 2.8501 2.8449 0.3173 0.3052 0.0054 0.0000 0.002591 2.953792 2.85011 0.317301 0.317301 2.85011 2.85011 0 0 0 2.85011 2.85011 2.84492 0.305195 0.305195 2.84492 2.84492 0 0 0 2.84492 2.84492 0.5 0.00542192 0.0102462 0 0.5 2.69365 2.69365 0.153868 2.84751 2.84751 
0.148 2 1 1 0 0.234951 0.426748 10.874883 2.8589 2.8486 0.3701 0.4294 0.0088 0.0000 0.005182 2.953870 2.85893 0.370061 0.370061 2.85893 2.85893 0 0 0 2.85893 2.85893 2.84856 0.429391 0.429391 2.84856 2.84856 0 0 0 2.84856 2.84856 0.5 0.00883573 0.0164246 0 0.5 2.65966 2.65966 0.194078 2.85374 2.85374 
0.158 2 1 1 0 0.561006 -0.057539 10.400186 2.8550 2.8498 0.4356 0.4651 0.0131 0.0000 0.002591 2.953984 2.85495 0.435581 0.435581 2.85495 2.85495 0 0 0 2.85495 2.85495 2.84977 0.465112 0.465112 2.84977 2.84977 0 0 0 2.84977 2.84977 0.5 0.0130528 0.0238813 0 0.5 2.61865 2.61865 0.233711 2.85236 2.85236 
0.168 2 1 1 0 0.321260 -0.561006 9.690536 2.8487 2.8383 0.4947 0.5285 0.0181 0.0001 0.005182 2.954133 2.84868 0.494738 0.494738 2.84868 2.84868 0 0 0 2.84868 2.84868 2.83832 0.528453 0.528453 2.83832 2.83832 0 0 0 2.83832 2.83832 0.5 0.0180731 0.0325785 0 0.5 2.57082 2.57082 0.27268 2.8435 2.8435 
0.178 2 1 1 0 0.105488 -0.127065 10.280313 2.8390 2.8286 0.5817 0.5778 0.0233 0.0001 0.005182 2.954268 2.839 0.581677 0.581677 2.839 2.839 0 0 0 2.839 2.839 2.82863 0.577772 0.577772 2.82863 2.82863 0 0 0 2.82863 2.82863 0.5 0.0232942 0.0412926 0 0.5 2.52289 2.52289 0.310925 2.83382 2.83382 
0.188 2 1 1 0 0.385991 -0.175015 9.951860 2.8219 2.8115 0.5877 0.6181 0.0293 0.0001 0.005182 2.954392 2.8219 0.587671 0.587671 2.8219 2.8219 0 0 0 2.8219 2.8219 2.81153 0.618081 0.618081 2.81153 2.81153 0 0 0 2.81153 2.81153 0.5 0.0293186 0.0512136 0 0.5 2.46833 2.46833 0.34839 2.81672 2.81672 
0.198 2 1 1 0 0.117476 -0.206182 10.249146 2.8022 2.7867 0.6414 0.6517 0.0359 0.0002 0.007773 2.954482 2.80222 0.641444 0.641444 2.80222 2.80222 0 0 0 2.80222 2.80222 2.78667 0.651679 0.651679 2.78667 2.78667 0 0 0 2.78667 2.78667 0.5 0.0359453 0.0619223 0 0.5 2.40943 2.40943 0.385016 2.79444 2.79444 
0.208 2 1 1 0 0.175015 -0.275708 9.695332 2.7791 2.7636 0.7195 0.7301 0.0428 0.0002 0.007773 2.954457 2.77915 0.719541 0.719541 2.77915 2.77915 0 0 0 2.77915 2.77915 2.7636 0.730115 0.730115 2.7636 2.7636 0 0 0 2.7636 2.7636 0.5 0.0427729 0.0726174 0 0.5 2.3506 2.3506 0.420769 2.77137 2.77137 
0.218 2 1 1 0 0.220566 -0.050347 10.196401 2.7582 2.7323 0.7067 0.7268 0.0500 0.0003 0.012956 2.954394 2.75823 0.70667 0.70667 2.75823 2.75823 0 0 0 2.75823 2.75823 2.73232 0.726757 0.726757 2.73232 2.73232 0 0 0 2.73232 2.73232 0.5 0.0500022 0.0836966 0 0.5 2.28967 2.28967 0.455609 2.74528 2.74528 
0.228 2 1 1 0 0.124668 0.047949 10.517661 2.7290 2.7031 0.7920 0.7745 0.0576 0.0004 0.012956 2.954284 2.72902 0.792028 0.792028 2.72902 2.72902 0 0 0 2.72902 2.72902 2.70311 0.774464 0.774464 2.70311 2.70311 0 0 0 2.70311 2.70311 0.5 0.057633 0.0951741 0 0.5 2.22654 2.22654 0.489525 2.71607 2.71607 
0.238 2 1 1 0 0.083911 -0.244541 9.901513 2.7058 2.6747 0.7693 0.7632 0.0651 0.0005 0.015547 2.954171 2.70579 0.769272 0.769272 2.70579 2.70579 0 0 0 2.70579 2.70579 2.6747 0.763181 0.763181 2.6747 2.6747 0 0 0 2.6747 2.6747 0.5 0.0650631 0.105869 0 0.5 2.16772 2.16772 0.522521 2.69024 2.69024 
0.248 2 1 1 0 0.040757 -0.002397 10.263530 2.6744 2.6433 0.7578 0.8108 0.0731 0.0006 0.015547 2.954015 2.67442 0.757781 0.757781 2.67442 2.67442 0 0 0 2.67442 2.67442 2.64333 0.810816 0.810816 2.64333 2.64333 0 0 0 2.64333 2.64333 0.5 0.0730955 0.117403 0 0.5 2.10428 2.10428 0.55459 2.65887 2.65887 
0.258 2 1 1 0 0.035962 -0.139053 10.016591 2.6532 2.6169 0.7316 0.7474 0.0805 0.0007 0.018138 2.953946 2.65317 0.731556 0.731556 2.65317 2.65317 0 0 0 2.65317 2.65317 2.61689 0.747381 0.747381 2.61689 2.61689 0 0 0 2.61689 2.61689 0.5 0.0805256 0.127407 0 0.5 2.04926 2.04926 0.585766 2.63503 2.63503 
0.268 2 1 1 0 -0.117476 -0.676084 9.985424 2.6416 2.5950 0.6517 0.6890 0.0873 0.0009 0.023320 2.953855 2.64164 0.651679 0.651679 2.64164 2.64164 0 0 0 2.64164 2.64164 2.595 0.68904 0.68904 2.595 2.595 0 0 0 2.595 2.595 0.5 0.0873532 0.135972 0 0.5 2.00215 2.00215 0.616168 2.61832 2.61832 
0.278 2 1 1 0 0.031167 0.352427 10.390595 2.6295 2.5829 0.6395 0.6351 0.0938 0.0010 0.023320 2.953878 2.62952 0.639529 0.639529 2.62952 2.62952 0 0 0 2.62952 2.62952 2.58288 0.635062 0.635062 2.58288 2.58288 0 0 0 2.58288 2.58288 0.5 0.0937792 0.143583 0 0.5 1.96029 1.96029 0.645909 2.6062 2.6062 
0.288 2 1 1 0 0.366812 0.148643 10.011797 2.6265 2.5747 0.5272 0.6132 0.0996 0.0012 0.025911 2.953910 2.62652 0.527152 0.527152 2.62652 2.62652 0 0 0 2.62652 2.62652 2.5747 0.613166 0.613166 2.5747 2.5747 0 0 0 2.5747 2.5747 0.5 0.0996027 0.149904 0 0.5 1.92553 1.92553 0.675079 2.60061 2.60061 
0.298 2 1 1 0 0.234951 -0.342837 9.750473 2.6324 2.5702 0.4883 0.5159 0.1048 0.0013 0.031093 2.954023 2.63236 0.488297 0.488297 2.63236 2.63236 0 0 0 2.63236 2.63236 2.57018 0.515922 0.515922 2.57018 2.57018 0 0 0 2.57018 2.57018 0.5 0.104824 0.155002 0 0.5 1.89749 1.89749 0.703781 2.60127 2.60127 
0.308 2 1 1 0 -0.007192 -0.234951 9.429214 2.6369 2.5747 0.4543 0.4492 0.1096 0.0015 0.031093 2.954127 2.63686 0.454283 0.454283 2.63686 2.63686 0 0 0 2.63686 2.63686 2.57467 0.449223 0.449223 2.57467 2.57467 0 0 0 2.57467 2.57467 0.5 0.109643 0.159333 0 0.5 1.87367 1.87367 0.7321 2.60577 2.60577 
0.318 2 1 1 0 0.210977 0.043154 10.074131 2.6499 2.5825 0.4317 0.4484 0.1138 0.0016 0.033685 2.954219 2.64985 0.431699 0.431699 2.64985 2.64985 0 0 0 2.64985 2.64985 2.58248 0.448387 0.448387 2.58248 2.58248 0 0 0 2.58248 2.58248 0.5 0.11386 0.162533 0 0.5 1.85607 1.85607 0.760097 2.61617 2.61617 
0.328 2 1 1 0 0.023975 -0.477095 10.253941 2.6620 2.5895 0.3795 0.4432 0.1181 0.0018 0.036276 2.954284 2.66202 0.379532 0.379532 2.66202 2.66202 0 0 0 2.66202 2.66202 2.58947 0.443192 0.443192 2.58947 2.58947 0 0 0 2.58947 2.58947 0.5 0.118077 0.165831 0 0.5 1.83793 1.83793 0.787819 2.62575 2.62575 
0.338 2 1 1 0 0.069526 -0.100693 10.404980 2.6777 2.6000 0.3434 0.4286 0.1219 0.0019 0.038867 2.954283 2.6777 0.343366 0.343366 2.6777 2.6777 0 0 0 2.6777 2.6777 2.59997 0.428608 0.428608 2.59997 2.59997 0 0 0 2.59997 2.59997 0.5 0.121893 0.168451 0 0.5 1.82352 1.82352 0.815316 2.63883 2.63883 
0.348 2 1 1 0 0.124668 -0.227759 10.083720 2.6973 2.6092 0.3292 0.3815 0.1255 0.0021 0.044049 2.954237 2.69727 0.3292 0.3292 2.69727 2.69727 0 0 0 2.69727 2.69727 2.60917 0.3815 0.3815 2.60917 2.60917 0 0 0 2.60917 2.60917 0.5 0.125507 0.170796 0 0.5 1.81062 1.81062 0.842601 2.65322 2.65322 
0.358 2 1 1 0 0.011987 -0.239746 9.951860 2.7107 2.6226 0.3186 0.3610 0.1291 0.0022 0.044049 2.954204 2.71073 0.318644 0.318644 2.71073 2.71073 0 0 0 2.71073 2.71073 2.62263 0.360956 0.360956 2.62263 2.62263 0 0 0 2.62263 2.62263 0.5 0.129122 0.173275 0 0.5 1.79699 1.79699 0.869696 2.66668 2.66668 
0.368 2 1 1 0 -0.040757 -0.273311 9.918296 2.7277 2.6396 0.3272 0.3482 0.1323 0.0024 0.044049 2.954120 2.72769 0.327244 0.327244 2.72769 2.72769 0 0 0 2.72769 2.72769 2.63959 0.348216 0.348216 2.63959 2.63959 0 0 0 2.63959 2.63959 0.5 0.132335 0.175086 0 0.5 1.78703 1.78703 0.896613 2.68364 2.68364 
0.378 2 1 1 0 -0.088706 -0.201387 10.153247 2.7489 2.6505 0.3010 0.3442 0.1355 0.0025 0.049231 2.954027 2.74893 0.300992 0.300992 2.74893 2.74893 0 0 0 2.74893 2.74893 2.65047 0.3442 0.3442 2.65047 2.65047 0 0 0 2.65047 2.65047 0.5 0.135548 0.17703 0 0.5 1.77633 1.77633 0.923363 2.6997 2.6997 
0.388 2 1 1 0 -0.091104 -0.076719 10.107695 2.7641 2.6657 0.2939 0.3443 0.1387 0.0027 0.049231 2.953918 2.76412 0.293898 0.293898 2.76412 2.76412 0 0 0 2.76412 2.76412 2.66566 0.344261 0.344261 2.66566 2.66566 0 0 0 2.66566 2.66566 0.5 0.138761 0.179101 0 0.5 1.76495 1.76495 0.949943 2.71489 2.71489 
0.398 2 1 1 0 0.093501 -0.131860 9.863154 2.7837 2.6749 0.3079 0.3346 0.1419 0.0028 0.054414 2.953862 2.78369 0.307876 0.307876 2.78369 2.78369 0 0 0 2.78369 2.78369 2.67486 0.33457 0.33457 2.67486 2.67486 0 0 0 2.67486 2.67486 0.5 0.141974 0.181286 0 0.5 1.75293 1.75293 0.976348 2.72927 2.72927 
0.408 2 1 1 0 0.134258 -0.009590 10.078925 2.7973 2.6885 0.3019 0.3289 0.1451 0.0030 0.054414 2.953813 2.79729 0.301916 0.301916 2.79729 2.79729 0 0 0 2.79729 2.79729 2.68846 0.32893 0.32893 2.68846 2.68846 0 0 0 2.68846 2.68846 0.5 0.145187 0.183582 0 0.5 1.7403 1.7403 1.00258 2.74288 2.74288 
0.418 2 1 1 0 0.038359 -0.105488 10.050156 2.8149 2.7009 0.2858 0.3232 0.1481 0.0032 0.057005 2.953816 2.81494 0.285794 0.285794 2.81494 2.81494 0 0 0 2.81494 2.81494 2.70093 0.323228 0.323228 2.70093 2.70093 0 0 0 2.70093 2.70093 0.5 0.148199 0.185582 0 0.5 1.7293 1.7293 1.02863 2.75794 2.75794 
0.428 2 1 1 0 0.071924 -0.146245 10.114887 2.8271 2.7131 0.2878 0.3217 0.1514 0.0034 0.057005 2.953852 2.82709 0.287765 0.287765 2.82709 2.82709 0 0 0 2.82709 2.82709 2.71309 0.321728 0.321728 2.71309 2.71309 0 0 0 2.71309 2.71309 0.5 0.151412 0.188076 0 0.5 1.71558 1.71558 1.05451 2.77009 2.77009 
0.438 2 1 1 0 0.191797 -0.055142 10.093310 2.8434 2.7242 0.3160 0.3234 0.1544 0.0035 0.059596 2.953919 2.84338 0.31598 0.31598 2.84338 2.84338 0 0 0 2.84338 2.84338 2.72419 0.323412 0.323412 2.72419 2.72419 0 0 0 2.72419 2.72419 0.5 0.154425 0.190256 0 0.5 1.70359 1.70359 1.0802 2.78379 2.78379 
0.448 2 1 1 0 0.155835 -0.095898 10.088515 2.8543 2.7351 0.3020 0.3268 0.1576 0.0037 0.059596 2.953969 2.85427 0.301973 0.301973 2.85427 2.85427 0 0 0 2.85427 2.85427 2.73507 0.326767 0.326767 2.73507 2.73507 0 0 0 2.73507 2.73507 0.5 0.157638 0.192911 0 0.5 1.68899 1.68899 1.10568 2.79467 2.79467 
0.458 2 1 1 0 0.254131 -0.196592 10.023784 2.8694 2.7450 0.2822 0.3270 0.1606 0.0039 0.062187 2.954074 2.86937 0.282205 0.282205 2.86937 2.86937 0 0 0 2.86937 2.86937 2.745 0.326978 0.326978 2.745 2.745 0 0 0 2.745 2.745 0.5 0.16065 0.195234 0 0.5 1.67621 1.67621 1.13097 2.80718 2.80718 
0.468 2 1 1 0 0.441133 -0.112681 9.896718 2.8839 2.7544 0.3064 0.3194 0.1636 0.0041 0.064778 2.954164 2.88393 0.306408 0.306408 2.88393 2.88393 0 0 0 2.88393 2.88393 2.75437 0.319362 0.319362 2.75437 2.75437 0 0 0 2.75437 2.75437 0.5 0.163662 0.197618 0 0.5 1.6631 1.6631 1.15605 2.81915 2.81915 
0.478 2 1 1 0 0.311670 -0.170220 9.848769 2.8932 2.7636 0.3350 0.3219 0.1668 0.0043 0.064778 2.954190 2.89316 0.335036 0.335036 2.89316 2.89316 0 0 0 2.89316 2.89316 2.76361 0.321889 0.321889 2.76361 2.76361 0 0 0 2.76361 2.76361 0.5 0.166875 0.20046 0 0.5 1.64747 1.64747 1.18092 2.82838 2.82838 
0.488 2 1 1 0 0.131860 -0.093501 9.956655 2.9067 2.7720 0.2985 0.3240 0.1698 0.0045 0.067369 2.954220 2.90673 0.298531 0.298531 2.90673 2.90673 0 0 0 2.90673 2.90673 2.77199 0.323988 0.323988 2.77199 2.77199 0 0 0 2.77199 2.77199 0.5 0.169887 0.202945 0 0.5 1.6338 1.6338 1.20556 2.83936 2.83936 
0.498 2 1 1 0 0.208579 -0.155835 9.915898 2.9150 2.7803 0.3018 0.3267 0.1730 0.0047 0.067369 2.954249 2.91503 0.301784 0.301784 2.91503 2.91503 0 0 0 2.91503 2.91503 2.78029 0.326745 0.326745 2.78029 2.78029 0 0 0 2.78029 2.78029 0.5 0.1731 0.205876 0 0.5 1.61768 1.61768 1.22998 2.84766 2.84766 
0.508 2 1 1 0 0.129463 -0.167822 10.026181 2.9229 2.7882 0.3002 0.3303 0.1762 0.0049 0.067369 2.954195 2.9229 0.300167 0.300167 2.9229 2.9229 0 0 0 2.9229 2.9229 2.78816 0.330283 0.330283 2.78816 2.78816 0 0 0 2.78816 2.78816 0.5 0.176313 0.208843 0 0.5 1.60136 1.60136 1.25417 2.85553 2.85553 
0.518 2 1 1 0 0.129463 -0.119873 9.784038 2.9352 2.7952 0.3264 0.3296 0.1792 0.0051 0.069960 2.954150 2.93517 0.326413 0.326413 2.93517 2.93517 0 0 0 2.93517 2.93517 2.79525 0.329571 0.329571 2.79525 2.79525 0 0 0 2.79525 2.79525 0.5 0.179326 0.211439 0 0.5 1.58709 1.58709 1.27812 2.86521 2.86521 
0.528 2 1 1 0 0.175015 -0.292490 10.318671 2.9423 2.8023 0.3176 0.3260 0.1824 0.0054 0.069960 2.954098 2.94225 0.317615 0.317615 2.94225 2.94225 0 0 0 2.94225 2.94225 2.80233 0.325994 0.325994 2.80233 2.80233 0 0 0 2.80233 2.80233 0.5 0.182539 0.214463 0 0.5 1.57046 1.57046 1.30183 2.87229 2.87229 
0.538 2 1 1 0 0.141450 -0.163027 9.932680 2.9538 2.8087 0.3023 0.3286 0.1854 0.0056 0.072551 2.954062 2.95376 0.302285 0.302285 2.95376 2.95376 0 0 0 2.95376 2.95376 2.80865 0.328594 0.328594 2.80865 2.80865 0 0 0 2.80865 2.80865 0.5 0.185551 0.217109 0 0.5 1.5559 1.5559 1.3253 2.8812 2.8812 
0.548 2 1 1 0 0.115078 -0.074321 10.066938 2.9601 2.8150 0.3052 0.3298 0.1886 0.0058 0.072551 2.954017 2.96009 0.305166 0.305166 2.96009 2.96009 0 0 0 2.96009 2.96009 2.81499 0.329786 0.329786 2.81499 2.81499 0 0 0 2.81499 2.81499 0.5 0.188764 0.220181 0 0.5 1.53901 1.53901 1.34853 2.88754 2.88754 
0.558 2 1 1 0 0.258926 -0.086309 10.002207 2.9661 2.8210 0.3050 0.3321 0.1918 0.0060 0.072551 2.954036 2.96608 0.305041 0.305041 2.96608 2.96608 0 0 0 2.96608 2.96608 2.82098 0.332127 0.332127 2.82098 2.82098 0 0 0 2.82098 2.82098 0.5 0.191977 0.223269 0 0.5 1.52202 1.52202 1.37151 2.89353 2.89353 
0.568 2 1 1 0 0.112681 0.016782 10.136464 2.9718 2.8267 0.3057 0.3355 0.1950 0.0063 0.072551 2.954031 2.97176 0.305747 0.305747 2.97176 2.97176 0 0 0 2.97176 2.97176 2.82666 0.335502 0.335502 2.82666 2.82666 0 0 0 2.82666 2.82666 0.5 0.19519 0.226368 0 0.5 1.50498 1.50498 1.39423 2.89921 2.89921 
0.578 2 1 1 0 0.146245 -0.122271 10.112490 2.9775 2.8272 0.3054 0.3483 0.1984 0.0065 0.075143 2.954052 2.9775 0.305418 0.305418 2.9775 2.9775 0 0 0 2.9775 2.9775 2.82722 0.348342 0.348342 2.82722 2.82722 0 0 0 2.82722 2.82722 0.5 0.198604 0.229878 0 0.5 1.48567 1.48567 1.41669 2.90236 2.90236 
0.588 2 1 1 0 0.100693 -0.023975 10.160439 2.9874 2.8319 0.3242 0.3290 0.2014 0.0068 0.077734 2.954083 2.98735 0.324163 0.324163 2.98735 2.98735 0 0 0 2.98735 2.98735 2.83189 0.328953 0.328953 2.83189 2.83189 0 0 0 2.83189 2.83189 0.5 0.201616 0.232594 0 0.5 1.47073 1.47073 1.43889 2.90962 2.90962 
0.598 2 1 1 0 0.117476 -0.134258 9.752871 2.9921 2.8366 0.3211 0.3376 0.2046 0.0070 0.077734 2.954070 2.99209 0.321117 0.321117 2.99209 2.99209 0 0 0 2.99209 2.99209 2.83662 0.337558 0.337558 2.83662 2.83662 0 0 0 2.83662 2.83662 0.5 0.204829 0.235723 0 0.5 1.45352 1.45352 1.46083 2.91436 2.91436 
0.608 2 1 1 0 0.079116 -0.038359 10.021386 2.9965 2.8411 0.3404 0.3324 0.2078 0.0073 0.077734 2.954057 2.99653 0.340395 0.340395 2.99653 2.99653 0 0 0 2.99653 2.99653 2.84107 0.332436 0.332436 2.84107 2.84107 0 0 0 2.84107 2.84107 0.5 0.208042 0.238858 0 0.5 1.43628 1.43628 1.48252 2.9188 2.9188 
0.618 2 1 1 0 0.198989 -0.210977 9.956655 3.0007 2.8452 0.3430 0.3399 0.2111 0.0075 0.077734 2.954033 3.00066 0.342963 0.342963 3.00066 3.00066 0 0 0 3.00066 3.00066 2.8452 0.339877 0.339877 2.8452 2.8452 0 0 0 2.8452 2.8452 0.5 0.211255 0.242002 0 0.5 1.41899 1.41899 1.50394 2.92293 2.92293 
0.628 2 1 1 0 0.055142 -0.160630 10.069336 3.0049 2.8443 0.3191 0.3350 0.2145 0.0078 0.080325 2.953990 3.00491 0.319119 0.319119 3.00491 3.00491 0 0 0 3.00491 3.00491 2.84426 0.334989 0.334989 2.84426 2.84426 0 0 0 2.84426 2.84426 0.5 0.214669 0.245546 0 0.5 1.39949 1.39949 1.52509 2.92459 2.92459 
0.638 2 1 1 0 0.081514 -0.110283 10.146054 3.0085 2.8479 0.3262 0.3356 0.2177 0.0080 0.080325 2.953951 3.00852 0.326192 0.326192 3.00852 3.00852 0 0 0 3.00852 3.00852 2.84788 0.335607 0.335607 2.84788 2.84788 0 0 0 2.84788 2.84788 0.5 0.217882 0.248685 0 0.5 1.38223 1.38223 1.54597 2.9282 2.9282 
0.648 2 1 1 0 0.124668 -0.249336 10.052553 3.0122 2.8464 0.3313 0.3158 0.2211 0.0083 0.082916 2.953923 3.01225 0.331339 0.331339 3.01225 3.01225 0 0 0 3.01225 3.01225 2.84642 0.315815 0.315815 2.84642 2.84642 0 0 0 2.84642 2.84642 0.5 0.221296 0.252225 0 0.5 1.36276 1.36276 1.56657 2.92933 2.92933 
0.658 2 1 1 0 0.033564 -0.081514 10.213183 3.0153 2.8495 0.3256 0.3237 0.2243 0.0086 0.082916 2.953899 3.01532 0.325553 0.325553 3.01532 3.01532 0 0 0 3.01532 3.01532 2.84948 0.323651 0.323651 2.84948 2.84948 0 0 0 2.84948 2.84948 0.5 0.224509 0.255364 0 0.5 1.3455 1.3455 1.5869 2.9324 2.9324 
0.668 2 1 1 0 0.208579 -0.215771 9.923091 3.0181 2.8523 0.3457 0.3268 0.2275 0.0088 0.082916 2.953938 3.0181 0.345681 0.345681 3.0181 3.0181 0 0 0 3.0181 3.0181 2.85227 0.326811 0.326811 2.85227 2.85227 0 0 0 2.85227 2.85227 0.5 0.227722 0.258505 0 0.5 1.32822 1.32822 1.60697 2.93519 2.93519 
0.678 2 1 1 0 0.095898 -0.222964 10.220376 3.0210 2.8500 0.3501 0.3383 0.2309 0.0091 0.085507 2.953986 3.02101 0.350114 0.350114 3.02101 3.02101 0 0 0 3.02101 3.02101 2.85 0.338281 0.338281 2.85 2.85 0 0 0 2.85 2.85 0.5 0.231136 0.262045 0 0.5 1.30875 1.30875 1.62675 2.93551 2.93551 
0.688 2 1 1 0 0.129463 -0.093501 10.167631 3.0233 2.8523 0.3239 0.3426 0.2341 0.0094 0.085507 2.954077 3.02327 0.323879 0.323879 3.02327 3.02327 0 0 0 3.02327 3.02327 2.85225 0.342622 0.342622 2.85225 2.85225 0 0 0 2.85225 2.85225 0.5 0.234349 0.265184 0 0.5 1.29149 1.29149 1.64627 2.93776 2.93776 
0.698 2 1 1 0 0.220566 -0.055142 10.306684 3.0209 2.8498 0.3165 0.3447 0.2377 0.0097 0.085507 2.954141 3.02086 0.316478 0.316478 3.02086 3.02086 0 0 0 3.02086 3.02086 2.84985 0.344742 0.344742 2.84985 2.84985 0 0 0 2.84985 2.84985 0.5 0.237963 0.269118 0 0.5 1.26985 1.26985 1.6655 2.93536 2.93536 
0.708 2 1 1 0 0.153437 -0.055142 10.066938 3.0226 2.8516 0.3187 0.3483 0.2409 0.0100 0.085507 2.954153 3.02261 0.318665 0.318665 3.02261 3.02261 0 0 0 3.02261 3.02261 2.85159 0.348279 0.348279 2.85159 2.85159 0 0 0 2.85159 2.85159 0.5 0.241176 0.272248 0 0.5 1.25263 1.25263 1.68447 2.9371 2.9371 
0.718 2 1 1 0 0.165425 -0.100693 9.652178 3.0241 2.8531 0.3170 0.3326 0.2441 0.0102 0.085507 2.954144 3.02408 0.316957 0.316957 3.02408 3.02408 0 0 0 3.02408 3.02408 2.85307 0.332596 0.332596 2.85307 2.85307 0 0 0 2.85307 2.85307 0.5 0.244389 0.275377 0 0.5 1.23543 1.23543 1.70315 2.93858 2.93858 
0.728 2 1 1 0 0.191797 -0.093501 9.930283 3.0257 2.8495 0.3175 0.3399 0.2475 0.0105 0.088098 2.954130 3.02567 0.3175 0.3175 3.02567 3.02567 0 0 0 3.02567 3.02567 2.84948 0.339879 0.339879 2.84948 2.84948 0 0 0 2.84948 2.84948 0.5 0.247803 0.278907 0 0.5 1.21601 1.21601 1.72156 2.93758 2.93758 
0.738 2 1 1 0 0.110283 -0.093501 10.021386 3.0266 2.8504 0.3183 0.3433 0.2507 0.0108 0.088098 2.954108 3.02661 0.318286 0.318286 3.02661 3.02661 0 0 0 3.02661 3.02661 2.85042 0.343317 0.343317 2.85042 2.85042 0 0 0 2.85042 2.85042 0.5 0.251016 0.282034 0 0.5 1.19881 1.19881 1.7397 2.93851 2.93851 
0.748 2 1 1 0 0.088706 -0.071924 10.090913 3.0277 2.8463 0.3195 0.3393 0.2541 0.0111 0.090689 2.954059 3.0277 0.319499 0.319499 3.0277 3.0277 0 0 0 3.0277 3.0277 2.84632 0.339305 0.339305 2.84632 2.84632 0 0 0 2.84632 2.84632 0.5 0.25443 0.285553 0 0.5 1.17946 1.17946 1.75755 2.93701 2.93701 
0.758 2 1 1 0 0.031167 -0.052744 10.064541 3.0282 2.8468 0.3190 0.3306 0.2573 0.0114 0.090689 2.954003 3.02816 0.318992 0.318992 3.02816 3.02816 0 0 0 3.02816 3.02816 2.84678 0.330623 0.330623 2.84678 2.84678 0 0 0 2.84678 2.84678 0.5 0.257643 0.288664 0 0.5 1.16235 1.16235 1.77512 2.93747 2.93747 
0.768 2 1 1 0 0.057539 -0.184604 9.983027 3.0239 2.8426 0.3428 0.3435 0.2609 0.0117 0.090689 2.953990 3.02393 0.342756 0.342756 3.02393 3.02393 0 0 0 3.02393 3.02393 2.84255 0.343452 0.343452 2.84255 2.84255 0 0 0 2.84255 2.84255 0.5 0.261257 0.292576 0 0.5 1.14083 1.14083 1.79241 2.93324 2.93324 
0.778 2 1 1 0 0.052744 -0.115078 10.184414 3.0239 2.8425 0.3380 0.3422 0.2641 0.0120 0.090689 2.953992 3.02385 0.338044 0.338044 3.02385 3.02385 0 0 0 3.02385 3.02385 2.84247 0.342208 0.342208 2.84247 2.84247 0 0 0 2.84247 2.84247 0.5 0.26447 0.295684 0 0.5 1.12374 1.12374 1.80943 2.93316 2.93316 
0.788 2 1 1 0 -0.079116 -0.179810 10.102901 3.0235 2.8421 0.3191 0.3422 0.2673 0.0123 0.090689 2.954020 3.02351 0.319076 0.319076 3.02351 3.02351 0 0 0 3.02351 3.02351 2.84214 0.34216 0.34216 2.84214 2.84214 0 0 0 2.84214 2.84214 0.5 0.267683 0.298788 0 0.5 1.10666 1.10666 1.82616 2.93283 2.93283 
0.798 2 1 1 0 0.158232 -0.177412 10.107695 3.0233 2.8367 0.3375 0.3186 0.2707 0.0126 0.093280 2.954052 3.02327 0.337511 0.337511 3.02327 3.02327 0 0 0 3.02327 3.02327 2.83671 0.318602 0.318602 2.83671 2.83671 0 0 0 2.83671 2.83671 0.5 0.271097 0.302298 0 0.5 1.08736 1.08736 1.84263 2.92999 2.92999 
0.808 2 1 1 0 0.067129 -0.035962 10.162837 3.0224 2.8358 0.3442 0.3542 0.2739 0.0129 0.093280 2.954077 3.0224 0.344212 0.344212 3.0224 3.0224 0 0 0 3.0224 3.0224 2.83584 0.354244 0.354244 2.83584 2.83584 0 0 0 2.83584 2.83584 0.5 0.27431 0.305397 0 0.5 1.07032 1.07032 1.85881 2.92912 2.92912 
0.818 2 1 1 0 0.251733 -0.059937 10.117285 3.0168 2.8303 0.3226 0.3354 0.2775 0.0133 0.093280 2.954181 3.01683 0.3226 0.3226 3.01683 3.01683 0 0 0 3.01683 3.01683 2.83027 0.335397 0.335397 2.83027 2.83027 0 0 0 2.83027 2.83027 0.5 0.277925 0.309303 0 0.5 1.04883 1.04883 1.87472 2.92355 2.92355 
0.828 2 1 1 0 0.158232 -0.095898 10.011797 3.0154 2.8288 0.3247 0.3366 0.2807 0.0136 0.093280 2.954199 3.0154 0.324654 0.324654 3.0154 3.0154 0 0 0 3.0154 3.0154 2.82884 0.336568 0.336568 2.82884 2.82884 0 0 0 2.82884 2.82884 0.5 0.281137 0.312407 0 0.5 1.03176 1.03176 1.89035 2.92212 2.92212 
0.838 2 1 1 0 0.071924 -0.079116 10.126875 3.0137 2.8271 0.3251 0.3365 0.2839 0.0139 0.093280 2.954196 3.01369 0.325081 0.325081 3.01369 3.01369 0 0 0 3.01369 3.01369 2.82713 0.336509 0.336509 2.82713 2.82713 0 0 0 2.82713 2.82713 0.5 0.28435 0.315509 0 0.5 1.0147 1.0147 1.90571 2.92041 2.92041 
0.848 2 1 1 0 0.064731 -0.057539 9.932680 3.0121 2.8204 0.3196 0.3325 0.2873 0.0142 0.095872 2.954130 3.0121 0.319637 0.319637 3.0121 3.0121 0 0 0 3.0121 3.0121 2.82035 0.332482 0.332482 2.82035 2.82035 0 0 0 2.82035 2.82035 0.5 0.287764 0.319013 0 0.5 0.995426 0.995426 1.9208 2.91623 2.91623 
0.858 2 1 1 0 0.167822 -0.105488 10.112490 3.0099 2.8181 0.3224 0.3669 0.2905 0.0145 0.095872 2.954104 3.00986 0.322385 0.322385 3.00986 3.00986 0 0 0 3.00986 3.00986 2.81812 0.366892 0.366892 2.81812 2.81812 0 0 0 2.81812 2.81812 0.5 0.290977 0.322112 0 0.5 0.978384 0.978384 1.9356 2.91399 2.91399 
0.868 2 1 1 0 -0.007192 -0.071924 9.956655 3.0077 2.8108 0.3215 0.3352 0.2939 0.0148 0.098463 2.954055 3.00773 0.321481 0.321481 3.00773 3.00773 0 0 0 3.00773 3.00773 2.8108 0.335152 0.335152 2.8108 2.8108 0 0 0 2.8108 2.8108 0.5 0.294391 0.325612 0 0.5 0.959131 0.959131 1.95014 2.90927 2.90927 
0.878 2 1 1 0 0.103091 -0.098296 10.124477 3.0001 2.8084 0.3252 0.3377 0.2973 0.0152 0.095872 2.953995 3.00014 0.325213 0.325213 3.00014 3.00014 0 0 0 3.00014 3.00014 2.80839 0.337724 0.337724 2.80839 2.80839 0 0 0 2.80839 2.80839 0.5 0.297805 0.329114 0 0.5 0.939872 0.939872 1.96439 2.90427 2.90427 
0.888 2 1 1 0 0.019180 -0.040757 10.170029 2.9971 2.8053 0.3347 0.3374 0.3005 0.0155 0.095872 2.953932 2.99706 0.334675 0.334675 2.99706 2.99706 0 0 0 2.99706 2.99706 2.80532 0.337416 0.337416 2.80532 2.80532 0 0 0 2.80532 2.80532 0.5 0.301017 0.332217 0 0.5 0.922808 0.922808 1.97838 2.90119 2.90119 
0.898 2 1 1 0 0.148643 -0.100693 10.141259 2.9941 2.7971 0.3580 0.3219 0.3039 0.0158 0.098463 2.953919 2.99407 0.35802 0.35802 2.99407 2.99407 0 0 0 2.99407 2.99407 2.79714 0.321868 0.321868 2.79714 2.79714 0 0 0 2.79714 2.79714 0.5 0.304431 0.335727 0 0.5 0.903503 0.903503 1.9921 2.89561 2.89561 
0.908 2 1 1 0 0.237349 -0.254131 9.863154 2.9904 2.7935 0.3377 0.3299 0.3071 0.0161 0.098463 2.953949 2.99041 0.337724 0.337724 2.99041 2.99041 0 0 0 2.99041 2.99041 2.79348 0.329853 0.329853 2.79348 2.79348 0 0 0 2.79348 2.79348 0.5 0.307644 0.338839 0 0.5 0.886386 0.886386 2.00556 2.89194 2.89194 
0.918 2 1 1 0 -0.141450 -0.350029 10.007002 2.9865 2.7896 0.3288 0.3217 0.3103 0.0165 0.098463 2.954000 2.98649 0.328829 0.328829 2.98649 2.98649 0 0 0 2.98649 2.98649 2.78956 0.321739 0.321739 2.78956 2.78956 0 0 0 2.78956 2.78956 0.5 0.310857 0.341947 0 0.5 0.869291 0.869291 2.01873 2.88802 2.88802 
0.928 2 1 1 0 0.450723 -0.354824 9.829590 2.9827 2.7806 0.3372 0.3354 0.3136 0.0168 0.101054 2.954097 2.98266 0.33718 0.33718 2.98266 2.98266 0 0 0 2.98266 2.98266 2.78055 0.335409 0.335409 2.78055 2.78055 0 0 0 2.78055 2.78055 0.5 0.314271 0.34546 0 0.5 0.849969 0.849969 2.03164 2.88161 2.88161 
0.938 2 1 1 0 0.254131 -0.076719 10.162837 2.9782 2.7761 0.3173 0.3370 0.3168 0.0171 0.101054 2.954189 2.97816 0.317333 0.317333 2.97816 2.97816 0 0 0 2.97816 2.97816 2.77605 0.336968 0.336968 2.77605 2.77605 0 0 0 2.77605 2.77605 0.5 0.317484 0.348577 0 0.5 0.832827 0.832827 2.04428 2.8771 2.8771 
0.948 2 1 1 0 0.366812 -0.134258 9.899116 2.9734 2.7713 0.3286 0.3282 0.3200 0.0174 0.101054 2.954298 2.97337 0.328594 0.328594 2.97337 2.97337 0 0 0 2.97337 2.97337 2.77126 0.328225 0.328225 2.77126 2.77126 0 0 0 2.77126 2.77126 0.5 0.320697 0.351697 0 0.5 0.815665 0.815665 2.05665 2.87232 2.87232 
0.958 2 1 1 0 0.175015 -0.194194 9.903911 2.9683 2.76620.327344 2.76617 2.76617 0 0 0 2.76617 2.76617 0.5 0.32391 0.354825 0 0.5 0.798462 0.798462 2.06876 2.86722 2.86722 
0.968 2 1 1 0 0.232554 -0.103091 10.016591 2.9629 2.7608 0.3362 0.3309 0.3264 0.0181 0.101054 2.954413 2.9629 0.336181 0.336181 2.9629 2.9629 0 0 0 2.9629 2.9629 2.76079 0.330929 0.330929 2.76079 2.76079 0 0 0 2.76079 2.76079 0.5 0.327122 0.357957 0 0.5 0.781235 0.781235 2.08061 2.86184 2.86184 
0.978 2 1 1 0 0.175015 -0.119873 10.018989 2.9576 2.7503 0.3259 0.3283 0.3298 0.0184 0.103645 2.954382 2.95763 0.325861 0.325861 2.95763 2.95763 0 0 0 2.95763 2.95763 2.75034 0.328337 0.328337 2.75034 2.75034 0 0 0 2.75034 2.75034 0.5 0.330536 0.36149 0 0.5 0.761804 0.761804 2.09218 2.85398 2.85398 
0.988 2 1 1 0 0.179810 -0.155835 10.330659 2.9517 2.7444 0.3288 0.3199 0.3330 0.0187 0.103645 2.954314 2.95169 0.328841 0.328841 2.95169 2.95169 0 0 0 2.95169 2.95169 2.7444 0.319892 0.319892 2.7444 2.7444 0 0 0 2.7444 2.7444 0.5 0.333749 0.364626 0 0.5 0.744555 0.744555 2.10349 2.84804 2.84804 
0.998 2 1 1 0 0.047949 -0.026372 10.172426 2.9455 2.7382 0.3160 0.3192 0.3362 0.0191 0.103645 2.954254 2.94545 0.316022 0.316022 2.94545 2.94545 0 0 0 2.94545 2.94545 2.73816 0.319214 0.319214 2.73816 2.73816 0 0 0 2.73816 2.73816 0.5 0.336962 0.367769 0 0.5 0.727272 0.727272 2.11454 2.84181 2.84181 
1.008 2 1 1 0 0.194194 -0.227759 9.755268 2.9389 2.7316 0.3269 0.3021 0.3394 0.0194 0.103645 2.954182 2.93892 0.326889 0.326889 2.93892 2.93892 0 0 0 2.93892 2.93892 2.73163 0.302068 0.302068 2.73163 2.73163 0 0 0 2.73163 2.73163 0.5 0.340175 0.370918 0 0.5 0.709949 0.709949 2.12532 2.83527 2.83527 
1.018 2 1 1 0 0.026372 -0.071924 10.146054 2.9321 2.7248 0.3535 0.3264 0.3426 0.0197 0.103645 2.954085 2.93208 0.353477 0.353477 2.93208 2.93208 0 0 0 2.93208 2.93208 2.72479 0.32638 0.32638 2.72479 2.72479 0 0 0 2.72479 2.72479 0.5 0.343388 0.374076 0 0.5 0.692583 0.692583 2.13585 2.82844 2.82844 
1.028 2 1 1 0 0.007192 -0.103091 10.026181 2.9250 2.7177 0.3312 0.3335 0.3458 0.0201 0.103645 2.954006 2.92495 0.331225 0.331225 2.92495 2.92495 0 0 0 2.92495 2.92495 2.71766 0.333459 0.333459 2.71766 2.71766 0 0 0 2.71766 2.71766 0.5 0.346601 0.377239 0 0.5 0.675185 0.675185 2.14612 2.82131 2.82131 
1.038 2 1 1 0 0.100693 -0.163027 9.951860 2.9175 2.7103 0.3175 0.3245 0.3490 0.0204 0.103645 2.953940 2.91754 0.317531 0.317531 2.91754 2.91754 0 0 0 2.91754 2.91754 2.71025 0.324501 0.324501 2.71025 2.71025 0 0 0 2.71025 2.71025 0.5 0.349814 0.380405 0 0.5 0.657771 0.657771 2.15613 2.8139 2.8139 
1.048 2 1 1 0 0.189399 -0.153437 9.966245 2.9099 2.7026 0.3256 0.3149 0.3522 0.0207 0.103645 2.953938 2.90985 0.325608 0.325608 2.90985 2.90985 0 0 0 2.90985 2.90985 2.70256 0.314948 0.314948 2.70256 2.70256 0 0 0 2.70256 2.70256 0.5 0.353027 0.383574 0 0.5 0.640342 0.640342 2.16586 2.80621 2.80621 
1.058 2 1 1 0 0.057539 -0.055142 10.349838 2.9019 2.6946 0.3127 0.3094 0.3554 0.0211 0.103645 2.953939 2.90187 0.31267 0.31267 2.90187 2.90187 0 0 0 2.90187 2.90187 2.69458 0.309368 0.309368 2.69458 2.69458 0 0 0 2.69458 2.69458 0.5 0.35624 0.38675 0 0.5 0.622875 0.622875 2.17535 2.79822 2.79822 
1.068 2 1 1 0 0.278105 -0.275708 9.863154 2.8936 2.6863 0.3227 0.2989 0.3586 0.0214 0.103645 2.954002 2.89356 0.322719 0.322719 2.89356 2.89356 0 0 0 2.89356 2.89356 2.68628 0.298939 0.298939 2.68628 2.68628 0 0 0 2.68628 2.68628 0.5 0.359453 0.389937 0 0.5 0.605344 0.605344 2.18458 2.78992 2.78992 
1.078 2 1 1 0 0.203784 -0.124668 10.030976 2.8850 2.6777 0.3107 0.3212 0.3618 0.0217 0.103645 2.954089 2.88496 0.310744 0.310744 2.88496 2.88496 0 0 0 2.88496 2.88496 2.67768 0.321246 0.321246 2.67768 2.67768 0 0 0 2.67768 2.67768 0.5 0.362666 0.393133 0 0.5 0.587768 0.587768 2.19355 2.78132 2.78132 
1.088 2 1 1 0 0.091104 -0.222964 10.093310 2.8809 2.6684 0.3092 0.3268 0.3648 0.0220 0.106236 2.954171 2.88087 0.309179 0.309179 2.88087 2.88087 0 0 0 2.88087 2.88087 2.6684 0.326834 0.326834 2.6684 2.6684 0 0 0 2.6684 2.6684 0.5 0.365678 0.395934 0 0.5 0.572363 0.572363 2.20227 2.77464 2.77464 
1.098 2 1 1 0 0.201387 -0.201387 9.879936 2.8717 2.6592 0.3041 0.3166 0.3680 0.0224 0.106236 2.954236 2.8717 0.304059 0.304059 2.8717 2.8717 0 0 0 2.8717 2.8717 2.65922 0.316582 0.316582 2.65922 2.65922 0 0 0 2.65922 2.65922 0.5 0.368891 0.399141 0 0.5 0.554726 0.554726 2.21074 2.76546 2.76546 
1.108 2 1 1 0 0.232554 -0.323657 9.491548 2.8622 2.6497 0.3020 0.3028 0.3712 0.0227 0.106236 2.954283 2.86222 0.301973 0.301973 2.86222 2.86222 0 0 0 2.86222 2.86222 2.64975 0.302779 0.302779 2.64975 2.64975 0 0 0 2.64975 2.64975 0.5 0.372103 0.402356 0 0.5 0.53704 0.53704 2.21894 2.75598 2.75598 
1.118 2 1 1 0 0.175015 -0.139053 9.879936 2.8569 2.6444 0.3171 0.3155 0.3740 0.0230 0.106236 2.954307 2.85685 0.317051 0.317051 2.85685 2.85685 0 0 0 2.85685 2.85685 2.64438 0.315494 0.315494 2.64438 2.64438 0 0 0 2.64438 2.64438 0.5 0.374915 0.404781 0 0.5 0.523706 0.523706 2.22691 2.75061 2.75061 
1.128 2 1 1 0 0.151040 -0.086309 9.930283 2.8468 2.6343 0.3235 0.3175 0.3772 0.0234 0.106236 2.954315 2.84676 0.323521 0.323521 2.84676 2.84676 0 0 0 2.84676 2.84676 2.63429 0.317479 0.317479 2.63429 2.63429 0 0 0 2.63429 2.63429 0.5 0.378128 0.408019 0 0.5 0.505896 0.505896 2.23463 2.74052 2.74052 
1.138 2 1 1 0 0.143848 -0.299683 10.066938 2.8364 2.6239 0.3187 0.3158 0.3804 0.0237 0.106236 2.954276 2.83637 0.318675 0.318675 2.83637 2.83637 0 0 0 2.83637 2.83637 2.6239 0.315794 0.315794 2.6239 2.6239 0 0 0 2.6239 2.6239 0.5 0.381341 0.411265 0 0.5 0.488045 0.488045 2.24209 2.73014 2.73014 
1.148 2 1 1 0 0.115078 -0.057539 10.184414 2.8257 2.6132 0.3041 0.3170 0.3836 0.0240 0.106236 2.954239 2.82572 0.304059 0.304059 2.82572 2.82572 0 0 0 2.82572 2.82572 2.61325 0.31703 0.31703 2.61325 2.61325 0 0 0 2.61325 2.61325 0.5 0.384554 0.414511 0 0.5 0.47019 0.47019 2.2493 2.71949 2.71949 
1.158 2 1 1 0 0.338042 -0.139053 10.150849 2.8192 2.6067 0.2958 0.3010 0.3864 0.0243 0.106236 2.954146 2.81919 0.29581 0.29581 2.81919 2.81919 0 0 0 2.81919 2.81919 2.60672 0.301039 0.301039 2.60672 2.60672 0 0 0 2.60672 2.60672 0.5 0.387365 0.416963 0 0.5 0.456704 0.456704 2.25625 2.71295 2.71295 
1.168 2 1 1 0 0.045552 0.059937 10.409775 2.8079 2.5955 0.2955 0.3119 0.3895 0.0247 0.106236 2.954093 2.80794 0.295475 0.295475 2.80794 2.80794 0 0 0 2.80794 2.80794 2.59547 0.311941 0.311941 2.59547 2.59547 0 0 0 2.59547 2.59547 0.5 0.390578 0.420228 0 0.5 0.438745 0.438745 2.26296 2.70171 2.70171 
1.178 2 1 1 0 0.050347 -0.131860 10.165234 2.8012 2.5835 0.3062 0.3155 0.3925 0.0250 0.108827 2.954025 2.80119 0.306233 0.306233 2.80119 2.80119 0 0 0 2.80119 2.80119 2.58353 0.315515 0.315515 2.58353 2.58353 0 0 0 2.58353 2.58353 0.5 0.39359 0.423104 0 0.5 0.42293 0.42293 2.26943 2.69236 2.69236 
1.188 2 1 1 0 -0.055142 -0.093501 10.213183 2.7889 2.5765 0.3094 0.3077 0.3955 0.0253 0.106236 2.953967 2.78895 0.309437 0.309437 2.78895 2.78895 0 0 0 2.78895 2.78895 2.57648 0.307689 0.307689 2.57648 2.57648 0 0 0 2.57648 2.57648 0.5 0.396602 0.425989 0 0.5 0.407062 0.407062 2.27565 2.68271 2.68271 
1.198 2 1 1 0 0.088706 -0.011987 10.162837 2.7768 2.5643 0.3083 0.3080 0.3987 0.0257 0.106236 2.953952 2.77678 0.308329 0.308329 2.77678 2.77678 0 0 0 2.77678 2.77678 2.56431 0.308023 0.308023 2.56431 2.56431 0 0 0 2.56431 2.56431 0.5 0.399815 0.429289 0 0.5 0.388909 0.388909 2.28164 2.67055 2.67055 
1.208 2 1 1 0 0.091104 -0.182207 10.026181 2.7688 2.5563 0.2916 0.3001 0.4015 0.0260 0.106236 2.953977 2.76875 0.291595 0.291595 2.76875 2.76875 0 0 0 2.76875 2.76875 2.55628 0.300093 0.300093 2.55628 2.55628 0 0 0 2.55628 2.55628 0.5 0.402626 0.431792 0 0.5 0.375143 0.375143 2.28737 2.66252 2.66252 
1.218 2 1 1 0 0.177412 -0.062334 10.167631 2.7560 2.5435 0.2904 0.3328 0.4047 0.0263 0.106236 2.954016 2.75602 0.290444 0.290444 2.75602 2.75602 0 0 0 2.75602 2.75602 2.54355 0.332849 0.332849 2.54355 2.54355 0 0 0 2.54355 2.54355 0.5 0.405839 0.435105 0 0.5 0.356922 0.356922 2.29286 2.64979 2.64979 
1.228 2 1 1 0 0.141450 -0.146245 10.100503 2.7478 2.5301 0.3169 0.2946 0.4077 0.0266 0.108827 2.954082 2.7478 0.316947 0.316947 2.7478 2.7478 0 0 0 2.7478 2.7478 2.53014 0.294581 0.294581 2.53014 2.53014 0 0 0 2.53014 2.53014 0.5 0.408851 0.438026 0 0.5 0.340858 0.340858 2.29811 2.63897 2.63897 
1.238 2 1 1 0 0.143848 -0.107886 10.018989 2.7341 2.5216 0.3077 0.2992 0.4107 0.0270 0.106236 2.954126 2.7341 0.30766 0.30766 2.7341 2.7341 0 0 0 2.7341 2.7341 2.52163 0.299171 0.299171 2.52163 2.52163 0 0 0 2.52163 2.52163 0.5 0.411863 0.440953 0 0.5 0.324757 0.324757 2.30311 2.62787 2.62787 
1.248 2 1 1 0 0.105488 -0.256528 10.083720 2.7253 2.5077 0.2839 0.2918 0.4137 0.0273 0.108827 2.954168 2.72531 0.283934 0.283934 2.72531 2.72531 0 0 0 2.72531 2.72531 2.50765 0.291825 0.291825 2.50765 2.50765 0 0 0 2.50765 2.50765 0.5 0.414876 0.443889 0 0.5 0.308609 0.308609 2.30787 2.61648 2.61648 
1.258 2 1 1 0 0.119873 -0.007192 10.289902 2.7158 2.4982 0.3033 0.2946 0.4165 0.0276 0.108827 2.954179 2.71581 0.303275 0.303275 2.71581 2.71581 0 0 0 2.71581 2.71581 2.49815 0.294644 0.294644 2.49815 2.49815 0 0 0 2.49815 2.49815 0.5 0.417687 0.446441 0 0.5 0.294576 0.294576 2.3124 2.60698 2.60698 
1.268 2 1 1 0 0.175015 -0.237349 9.999809 2.7012 2.4887 0.3262 0.2956 0.4195 0.0279 0.106236 2.954211 2.70121 0.326214 0.326214 2.70121 2.70121 0 0 0 2.70121 2.70121 2.48874 0.29562 0.29562 2.48874 2.48874 0 0 0 2.48874 2.48874 0.5 0.420699 0.449405 0 0.5 0.278274 0.278274 2.3167 2.59497 2.59497 
1.278 2 1 1 0 0.083911 -0.153437 10.064541 2.6915 2.4738 0.2884 0.2979 0.4225 0.0282 0.108827 2.954181 2.69149 0.288437 0.288437 2.69149 2.69149 0 0 0 2.69149 2.69149 2.47384 0.29795 0.29795 2.47384 2.47384 0 0 0 2.47384 2.47384 0.5 0.423711 0.452382 0 0.5 0.2619 0.2619 2.32076 2.58266 2.58266 
1.288 2 1 1 0 0.086309 -0.203784 9.978232 2.6811 2.4634 0.3023 0.2938 0.4253 0.0285 0.108827 2.954157 2.6811 0.302295 0.302295 2.6811 2.6811 0 0 0 2.6811 2.6811 2.46344 0.293809 0.293809 2.46344 2.46344 0 0 0 2.46344 2.46344 0.5 0.426522 0.454968 0 0.5 0.247678 0.247678 2.32459 2.57227 2.57227 
1.298 2 1 1 0 0.124668 -0.129463 10.054951 2.6656 2.4532 0.3042 0.2960 0.4283 0.0289 0.106236 2.954113 2.66563 0.304203 0.304203 2.66563 2.66563 0 0 0 2.66563 2.66563 2.45315 0.29601 0.29601 2.45315 2.45315 0 0 0 2.45315 2.45315 0.5 0.429535 0.457963 0 0.5 0.231206 0.231206 2.32818 2.55939 2.55939 
1.308 2 1 1 0 0.112681 -0.095898 10.311480 2.6550 2.4374 0.2788 0.2962 0.4313 0.0292 0.108827 2.954070 2.65503 0.27876 0.27876 2.65503 2.65503 0 0 0 2.65503 2.65503 2.43738 0.296183 0.296183 2.43738 2.43738 0 0 0 2.43738 2.43738 0.5 0.432547 0.460971 0 0.5 0.214657 0.214657 2.33155 2.5462 2.5462 
1.318 2 1 1 0 0.081514 -0.079116 10.064541 2.6437 2.4261 0.2928 0.2859 0.4341 0.0295 0.108827 2.953975 2.64375 0.292844 0.292844 2.64375 2.64375 0 0 0 2.64375 2.64375 2.42609 0.285896 0.285896 2.42609 2.42609 0 0 0 2.42609 2.42609 0.5 0.435358 0.463593 0 0.5 0.200239 0.200239 2.33468 2.53492 2.53492 
1.328 2 1 1 0 0.002397 -0.122271 10.112490 2.6322 2.4145 0.2763 0.2902 0.4369 0.0298 0.108827 2.953950 2.63217 0.276299 0.276299 2.63217 2.63217 0 0 0 2.63217 2.63217 2.41451 0.290234 0.290234 2.41451 2.41451 0 0 0 2.41451 2.41451 0.5 0.438169 0.466227 0 0.5 0.185753 0.185753 2.33759 2.52334 2.52334 
1.338 2 1 1 0 -0.062334 0.055142 10.337852 2.6203 2.4026 0.2813 0.2779 0.4397 0.0301 0.108827 2.953894 2.6203 0.281307 0.281307 2.6203 2.6203 0 0 0 2.6203 2.6203 2.40264 0.2779 0.2779 2.40264 2.40264 0 0 0 2.40264 2.40264 0.5 0.440981 0.468872 0 0.5 0.171201 0.171201 2.34027 2.51147 2.51147 
1.348 2 1 1 0 0.139053 -0.076719 10.074131 2.6081 2.3905 0.2743 0.2817 0.4425 0.0304 0.108827 2.953879 2.60814 0.274349 0.274349 2.60814 2.60814 0 0 0 2.60814 2.60814 2.39048 0.281685 0.281685 2.39048 2.39048 0 0 0 2.39048 2.39048 0.5 0.443792 0.471529 0 0.5 0.15659 0.15659 2.34272 2.49931 2.49931 
1.358 2 1 1 0 0.021577 -0.028770 10.143657 2.5957 2.3780 0.2858 0.2951 0.4452 0.0307 0.108827 2.953851 2.5957 0.28582 0.28582 2.5957 2.5957 0 0 0 2.5957 2.5957 2.37804 0.295068 0.295068 2.37804 2.37804 0 0 0 2.37804 2.37804 0.5 0.446603 0.474195 0 0.5 0.141928 0.141928 2.34494 2.48687 2.48687 
1.368 2 1 1 0 0.167822 -0.069526 9.903911 2.5829 2.3653 0.2752 0.2826 0.4480 0.0310 0.108827 2.953904 2.58294 0.275203 0.275203 2.58294 2.58294 0 0 0 2.58294 2.58294 2.36529 0.282635 0.282635 2.36529 2.36529 0 0 0 2.36529 2.36529 0.5 0.449415 0.476878 0 0.5 0.127172 0.127172 2.34694 2.47412 2.47412 
1.378 2 1 1 0 0.167822 -0.115078 10.054951 2.5699 2.3522 0.2978 0.2736 0.4508 0.0313 0.108827 2.953945 2.5699 0.297775 0.297775 2.5699 2.5699 0 0 0 2.5699 2.5699 2.35224 0.273632 0.273632 2.35224 2.35224 0 0 0 2.35224 2.35224 0.5 0.452226 0.479574 0 0.5 0.112344 0.112344 2.34873 2.46107 2.46107 
1.388 2 1 1 0 0.218169 -0.069526 10.026181 2.5565 2.3389 0.2692 0.2816 0.4536 0.0316 0.108827 2.954010 2.55655 0.269193 0.269193 2.55655 2.55655 0 0 0 2.55655 2.55655 2.3389 0.281644 0.281644 2.3389 2.3389 0 0 0 2.3389 2.3389 0.5 0.455037 0.482285 0 0.5 0.0974311 0.0974311 2.35029 2.44772 2.44772 
1.398 2 1 1 0 0.175015 -0.196592 9.995014 2.5429 2.3252 0.2799 0.2657 0.4564 0.0319 0.108827 2.954068 2.5429 0.27991 0.27991 2.5429 2.5429 0 0 0 2.5429 2.5429 2.32524 0.265734 0.265734 2.32524 2.32524 0 0 0 2.32524 2.32524 0.5 0.457849 0.485013 0 0.5 0.0824294 0.0824294 2.35164 2.43407 2.43407 
1.408 2 1 1 0 0.134258 -0.151040 9.966245 2.5290 2.3113 0.2623 0.2786 0.4592 0.0322 0.108827 2.954109 2.52896 0.262285 0.262285 2.52896 2.52896 0 0 0 2.52896 2.52896 2.3113 0.278648 0.278648 2.3113 2.3113 0 0 0 2.3113 2.3113 0.5 0.46066 0.487753 0 0.5 0.067357 0.067357 2.35277 2.42013 2.42013 
1.418 2 1 1 0 0.052744 -0.249336 10.004604 2.5147 2.2971 0.2940 0.2989 0.4620 0.0325 0.108827 2.954115 2.51473 0.293961 0.293961 2.51473 2.51473 0 0 0 2.51473 2.51473 2.29708 0.298864 0.298864 2.29708 2.29708 0 0 0 2.29708 2.29708 0.5 0.463471 0.490505 0 0.5 0.0522246 0.0522246 2.35368 2.40591 2.40591 
1.428 2 1 1 0 0.047949 -0.230156 10.026181 2.5050 2.2822 0.2733 0.2697 0.4646 0.0328 0.111418 2.954056 2.50502 0.273276 0.273276 2.50502 2.50502 0 0 0 2.50502 2.50502 2.28218 0.269727 0.269727 2.28218 2.28218 0 0 0 2.28218 2.28218 0.5 0.466082 0.492869 0 0.5 0.0392188 0.0392188 2.35438 2.3936 2.3936 
1.438 2 1 1 0 0.000000 -0.230156 9.956655 2.4898 2.2722 0.2636 0.2685 0.4672 0.0331 0.108827 2.954010 2.48982 0.263554 0.263554 2.48982 2.48982 0 0 0 2.48982 2.48982 2.27217 0.268503 0.268503 2.27217 2.27217 0 0 0 2.27217 2.27217 0.5 0.468692 0.495249 0 0.5 0.0261303 0.0261303 2.35486 2.38099 2.38099 
1.448 2 1 1 0 0.098296 -0.249336 9.882334 2.4747 2.2571 0.2858 0.2592 0.4700 0.0334 0.108827 2.953955 2.47471 0.285794 0.285794 2.47471 2.47471 0 0 0 2.47471 2.47471 2.25705 0.259224 0.259224 2.25705 2.25705 0 0 0 2.25705 2.25705 0.5 0.471503 0.498048 0 0.5 0.0107353 0.0107353 2.35514 2.36588 2.36588 
1.458 2 1 1 0 0.067129 -0.076719 10.021386 2.4637 2.2460 0.2698 0.2608 0.4724 0.0337 0.108827 2.953930 2.4637 0.269803 0.269803 2.4637 2.4637 0 0 0 2.4637 2.4637 2.24604 0.260844 0.260844 2.24604 2.24604 0 0 0 2.24604 2.24604 0.5 0.473913 0.500064 0 0.5 -0.000351429 -0.000351429 2.35522 2.35487 2.35487 
1.468 2 1 1 0 0.146245 -0.131860 10.009399 2.4480 2.2303 0.2526 0.2666 0.4752 0.0340 0.108827 2.953911 2.44799 0.252633 0.252633 2.44799 2.44799 0 0 0 2.44799 2.44799 2.23033 0.266616 0.266616 2.23033 2.23033 0 0 0 2.23033 2.23033 0.5 0.476724 0.502896 0 0.5 -0.015929 -0.015929 2.35509 2.33916 2.33916 
1.478 2 1 1 0 0.069526 -0.031167 10.191607 2.4364 2.2187 0.2522 0.2612 0.4776 0.0342 0.108827 2.953926 2.4364 0.252191 0.252191 2.4364 2.4364 0 0 0 2.4364 2.4364 2.21875 0.261176 0.261176 2.21875 2.21875 0 0 0 2.21875 2.21875 0.5 0.479134 0.504942 0 0.5 -0.0271787 -0.0271787 2.35475 2.32757 2.32757 
1.488 2 1 1 0 0.196592 0.000000 10.208388 2.4201 2.2024 0.2698 0.2471 0.4804 0.0346 0.108827 2.953944 2.4201 0.269841 0.269841 2.4201 2.4201 0 0 0 2.4201 2.4201 2.20244 0.247058 0.247058 2.20244 2.20244 0 0 0 2.20244 2.20244 0.5 0.481945 0.507808 0 0.5 -0.0429465 -0.0429465 2.35422 2.31127 2.31127 
1.498 2 1 1 0 0.326055 0.079116 10.165234 2.4083 2.1855 0.2687 0.2587 0.4830 0.0348 0.111418 2.954001 2.40831 0.268712 0.268712 2.40831 2.40831 0 0 0 2.40831 2.40831 2.18547 0.258653 0.258653 2.18547 2.18547 0 0 0 2.18547 2.18547 0.5 0.484556 0.510287 0 0.5 -0.0565811 -0.0565811 2.35347 2.29689 2.29689 
1.508 2 1 1 0 0.071924 -.39106 2.39106 2.17341 0.25641 0.25641 2.17341 2.17341 0 0 0 2.17341 2.17341 0.5 0.487166 0.51278 0 0.5 -0.0702897 -0.0702897 2.35253 2.28224 2.28224 
1.518 2 1 1 0 0.021577 -0.210977 10.035771 2.3783 2.1607 0.2382 0.2565 0.4880 0.0354 0.108827 2.954061 2.37832 0.238211 0.238211 2.37832 2.37832 0 0 0 2.37832 2.37832 2.16066 0.256506 0.256506 2.16066 2.16066 0 0 0 2.16066 2.16066 0.5 0.489576 0.51489 0 0.5 -0.0818928 -0.0818928 2.35138 2.26949 2.26949 
1.528 2 1 1 0 0.136655 -0.076719 10.062143 2.3653 2.1476 0.2379 0.2469 0.4904 0.0356 0.108827 2.954075 2.36527 0.2379 0.2379 2.36527 2.36527 0 0 0 2.36527 2.36527 2.14762 0.246854 0.246854 2.14762 2.14762 0 0 0 2.14762 2.14762 0.5 0.491986 0.517019 0 0.5 -0.0936057 -0.0936057 2.35005 2.25644 2.25644 
1.538 2 1 1 0 0.134258 -0.198989 10.033374 2.3523 2.1295 0.2475 0.2512 0.4930 0.0359 0.111418 2.954060 2.3523 0.247547 0.247547 2.3523 2.3523 0 0 0 2.3523 2.3523 2.12946 0.251231 0.251231 2.12946 2.12946 0 0 0 2.12946 2.12946 0.5 0.494596 0.519572 0 0.5 -0.107646 -0.107646 2.34853 2.24088 2.24088 
1.548 2 1 1 0 0.074321 -0.275708 9.908706 2.3339 2.1162 0.2559 0.2533 0.4956 0.0362 0.108827 2.954025 2.33386 0.255927 0.255927 2.33386 2.33386 0 0 0 2.33386 2.33386 2.1162 0.253324 0.253324 2.1162 2.1162 0 0 0 2.1162 2.1162 0.5 0.497207 0.522143 0 0.5 -0.121785 -0.121785 2.34681 2.22503 2.22503 
1.558 2 1 1 0 -0.014385 -0.251733 10.054951 2.3199 2.1023 0.2639 0.2441 0.4979 0.0365 0.108827 2.953976 2.31994 0.263944 0.263944 2.31994 2.31994 0 0 0 2.31994 2.31994 2.10229 0.244074 0.244074 2.10229 2.10229 0 0 0 2.10229 2.10229 0.5 0.499617 0.524325 0 0.5 -0.133788 -0.133788 2.3449 2.21111 2.21111 
1.568 2 1 1 0 0.026372 -0.417158 9.697729 2.3057 2.0881 0.2627 0.2649 0.5003 0.0367 0.108827 2.953948 2.30573 0.262693 0.262693 2.30573 2.30573 0 0 0 2.30573 2.30573 2.08808 0.264945 0.264945 2.08808 2.08808 0 0 0 2.08808 2.08808 0.5 0.502026 0.526526 0 0.5 -0.145895 -0.145895 2.3428 2.19691 2.19691 
1.578 2 1 1 0 -0.043154 -0.184604 10.114887 2.2912 2.0736 0.2450 0.2516 0.5027 0.0370 0.108827 2.953916 2.29124 0.245048 0.245048 2.29124 2.29124 0 0 0 2.29124 2.29124 2.07359 0.251644 0.251644 2.07359 2.07359 0 0 0 2.07359 2.07359 0.5 0.504436 0.528746 0 0.5 -0.158104 -0.158104 2.34052 2.18241 2.18241 
1.588 2 1 1 0 0.031167 -0.098296 10.134068 2.2765 2.0588 0.2509 0.2346 0.5051 0.0373 0.108827 2.953831 2.27647 0.25093 0.25093 2.27647 2.27647 0 0 0 2.27647 2.27647 2.05881 0.234645 0.234645 2.05881 2.05881 0 0 0 2.05881 2.05881 0.5 0.506846 0.530982 0 0.5 -0.1704 -0.1704 2.33804 2.16764 2.16764 
1.598 2 1 1 0 0.067129 -0.045552 10.162837 2.2614 2.0437 0.2375 0.2474 0.5075 0.0375 0.108827 2.953804 2.2614 0.237513 0.237513 2.2614 2.2614 0 0 0 2.2614 2.2614 2.04374 0.247382 0.247382 2.04374 2.04374 0 0 0 2.04374 2.04374 0.5 0.509255 0.533239 0 0.5 -0.182813 -0.182813 2.33538 2.15257 2.15257 
1.608 2 1 1 0 0.067129 0.002397 10.220376 2.2460 2.0284 0.2326 0.2265 0.5099 0.0378 0.108827 2.953761 2.24604 0.232556 0.232556 2.24604 2.24604 0 0 0 2.24604 2.24604 2.02838 0.226544 0.226544 2.02838 2.02838 0 0 0 2.02838 2.02838 0.5 0.511665 0.535517 0 0.5 -0.195344 -0.195344 2.33255 2.13721 2.13721 
1.618 2 1 1 0 0.119873 -0.007192 10.062143 2.2352 2.0123 0.2329 0.2337 0.5121 0.0380 0.111418 2.953792 2.23518 0.232927 0.232927 2.23518 2.23518 0 0 0 2.23518 2.23518 2.01235 0.233655 0.233655 2.01235 2.01235 0 0 0 2.01235 2.01235 0.5 0.513874 0.537414 0 0.5 -0.205779 -0.205779 2.32954 2.12376 2.12376 
1.628 2 1 1 0 0.119873 -0.023975 10.311480 2.2192 1.9964 0.2285 0.2362 0.5145 0.0383 0.111418 2.953847 2.21924 0.228477 0.228477 2.21924 2.21924 0 0 0 2.21924 2.21924 1.99641 0.236186 0.236186 1.99641 1.99641 0 0 0 1.99641 1.99641 0.5 0.516284 0.539733 0 0.5 -0.218533 -0.218533 2.32636 2.10782 2.10782 
1.638 2 1 1 0 0.091104 0.002397 10.126875 2.2026 1.9850 0.2170 0.2320 0.5167 0.0385 0.108827 2.953956 2.20265 0.217016 0.217016 2.20265 2.20265 0 0 0 2.20265 2.20265 1.98499 0.231985 0.231985 1.98499 1.98499 0 0 0 1.98499 1.98499 0.5 0.518493 0.541667 0 0.5 -0.22917 -0.22917 2.32299 2.09382 2.09382 
1.648 2 1 1 0 0.225361 -0.127065 10.057348 2.1862 1.9685 0.2159 0.2248 0.5191 0.0388 0.108827 2.954039 2.18616 0.215903 0.215903 2.18616 2.18616 0 0 0 2.18616 2.18616 1.96851 0.2248 0.2248 1.96851 1.96851 0 0 0 1.96851 1.96851 0.5 0.520902 0.544021 0 0.5 -0.242116 -0.242116 2.31945 2.07733 2.07733 
1.658 2 1 1 0 0.112681 -0.139053 10.078925 2.1742 1.9514 0.2366 0.2279 0.5213 0.0391 0.111418 2.954133 2.1742 0.236592 0.236592 2.1742 2.1742 0 0 0 2.1742 2.1742 1.95136 0.227947 0.227947 1.95136 1.95136 0 0 0 1.95136 1.95136 0.5 0.523111 0.545992 0 0.5 -0.252957 -0.252957 2.31573 2.06278 2.06278 
1.668 2 1 1 0 0.122271 -0.112681 10.040566 2.1568 1.9391 0.2209 0.2285 0.5235 0.0393 0.108827 2.954185 2.15677 0.220875 0.220875 2.15677 2.15677 0 0 0 2.15677 2.15677 1.93911 0.228547 0.228547 1.93911 1.93911 0 0 0 1.93911 1.93911 0.5 0.52532 0.547983 0 0.5 -0.263909 -0.263909 2.31185 2.04794 2.04794 
1.678 2 1 1 0 0.165425 -0.220566 9.930283 2.1442 1.9214 0.2106 0.2074 0.5257 0.0395 0.111418 2.954213 2.14424 0.210555 0.210555 2.14424 2.14424 0 0 0 2.14424 2.14424 1.92141 0.207379 0.207379 1.92141 1.92141 0 0 0 1.92141 1.92141 0.5 0.527529 0.549994 0 0.5 -0.274969 -0.274969 2.3078 2.03283 2.03283 
1.688 2 1 1 0 0.004795 -0.268516 9.963847 2.1263 1.9086 0.2172 0.2226 0.5279 0.0398 0.108827 2.954170 2.12626 0.217153 0.217153 2.12626 2.12626 0 0 0 2.12626 2.12626 1.90861 0.222573 0.222573 1.90861 1.90861 0 0 0 1.90861 1.90861 0.5 0.529738 0.552025 0 0.5 -0.286139 -0.286139 2.30357 2.01744 2.01744 
1.698 2 1 1 0 0.124668 -0.242144 9.860757 2.1132 1.8903 0.2196 0.2218 0.5301 0.0400 0.111418 2.954121 2.11318 0.219627 0.219627 2.11318 2.11318 0 0 0 2.11318 2.11318 1.89034 0.22181 0.22181 1.89034 1.89034 0 0 0 1.89034 1.89034 0.5 0.531947 0.554078 0 0.5 -0.297432 -0.297432 2.29919 2.00176 2.00176 
1.708 2 1 1 0 0.117476 -0.275708 9.879936 2.0946 1.8770 0.2258 0.2105 0.5323 0.0403 0.108827 2.954053 2.09463 0.225822 0.225822 2.09463 2.09463 0 0 0 2.09463 2.09463 1.87698 0.210499 0.210499 1.87698 1.87698 0 0 0 1.87698 1.87698 0.5 0.534156 0.556153 0 0.5 -0.308844 -0.308844 2.29465 1.9858 1.9858 
1.718 2 1 1 0 -0.059937 -0.230156 10.028579 2.0806 1.8630 0.2144 0.2119 0.5343 0.0405 0.108827 2.953995 2.08062 0.214423 0.214423 2.08062 2.08062 0 0 0 2.08062 2.08062 1.86296 0.211878 0.211878 1.86296 1.86296 0 0 0 1.86296 1.86296 0.5 0.536164 0.557846 0 0.5 -0.318151 -0.318151 2.28994 1.97179 1.97179 
1.728 2 1 1 0 0.139053 -0.189399 9.987822 2.0667 1.8439 0.2273 0.2154 0.5365 0.0407 0.111418 2.953972 2.06674 0.227281 0.227281 2.06674 2.06674 0 0 0 2.06674 2.06674 1.8439 0.215449 0.215449 1.8439 1.8439 0 0 0 1.8439 1.8439 0.5 0.538373 0.559954 0 0.5 -0.329748 -0.329748 2.28507 1.95532 1.95532 
1.738 2 1 1 0 0.139053 -0.021577 10.064541 2.0474 1.8297 0.2237 0.2277 0.5387 0.0410 0.108827 2.953978 2.04738 0.22372 0.22372 2.04738 2.04738 0 0 0 2.04738 2.04738 1.82973 0.227683 0.227683 1.82973 1.82973 0 0 0 1.82973 1.82973 0.5 0.540581 0.562089 0 0.5 -0.341488 -0.341488 2.28004 1.93856 1.93856 
1.748 2 1 1 0 0.136655 0.038359 10.105297 2.0326 1.8150 0.2048 0.2096 0.5407 0.0412 0.108827 2.953980 2.03261 0.204754 0.204754 2.03261 2.03261 0 0 0 2.03261 2.03261 1.81495 0.209579 0.209579 1.81495 1.81495 0 0 0 1.81495 1.81495 0.5 0.54259 0.56383 0 0.5 -0.351066 -0.351066 2.27485 1.92378 1.92378 
1.758 2 1 1 0 0.230156 0.028770 10.126875 2.0175 1.7999 0.1983 0.2099 0.5427 0.0414 0.108827 2.954047 2.01753 0.198272 0.198272 2.01753 2.01753 0 0 0 2.01753 2.01753 1.79988 0.209867 0.209867 1.79988 1.79988 0 0 0 1.79988 1.79988 0.5 0.544598 0.565599 0 0.5 -0.360794 -0.360794 2.2695 1.90871 1.90871 
1.768 2 1 1 0 0.112681 0.047949 10.186811 2.0022 1.7845 0.1894 0.1991 0.5447 0.0416 0.108827 2.954081 2.00218 0.189412 0.189412 2.00218 2.00218 0 0 0 2.00218 2.00218 1.78453 0.199144 0.199144 1.78453 1.78453 0 0 0 1.78453 1.78453 0.5 0.546606 0.567391 0 0.5 -0.370653 -0.370653 2.26401 1.89336 1.89336 
1.778 2 1 1 0 0.083911 -0.050347 10.270722 1.9866 1.7689 0.2192 0.1959 0.5467 0.0419 0.108827 2.954114 1.98656 0.219237 0.219237 1.98656 1.98656 0 0 0 1.98656 1.98656 1.77774 
1.788 2 1 1 0 0.112681 0.026372 10.191607 1.9707 1.7530 0.1873 0.1984 0.5486 0.0421 0.108827 2.954122 1.97069 0.187317 0.187317 1.97069 1.97069 0 0 0 1.97069 1.97069 1.75303 0.198406 0.198406 1.75303 1.75303 0 0 0 1.75303 1.75303 0.5 0.550622 0.57104 0 0.5 -0.390719 -0.390719 2.25258 1.86186 1.86186 
1.798 2 1 1 0 0.172617 -0.124668 9.992617 1.9546 1.7369 0.2056 0.1926 0.5506 0.0423 0.108827 2.954113 1.95456 0.205605 0.205605 1.95456 1.95456 0 0 0 1.95456 1.95456 1.73691 0.19261 0.19261 1.73691 1.73691 0 0 0 1.73691 1.73691 0.5 0.55263 0.572891 0 0.5 -0.400902 -0.400902 2.24664 1.84573 1.84573 
1.808 2 1 1 0 0.081514 -0.172617 10.088515 1.9430 1.7201 0.2006 0.1956 0.5524 0.0425 0.111418 2.954082 1.94296 0.200561 0.200561 1.94296 1.94296 0 0 0 1.94296 1.94296 1.72012 0.195608 0.195608 1.72012 1.72012 0 0 0 1.72012 1.72012 0.5 0.554437 0.574366 0 0.5 -0.409015 -0.409015 2.24055 1.83154 1.83154 
1.818 2 1 1 0 -0.028770 -0.251733 10.150849 1.9263 1.7035 0.1838 0.1868 0.5544 0.0427 0.111418 2.954062 1.9263 0.183757 0.183757 1.9263 1.9263 0 0 0 1.9263 1.9263 1.70346 0.186816 0.186816 1.70346 1.70346 0 0 0 1.70346 1.70346 0.5 0.556445 0.576264 0 0.5 -0.41945 -0.41945 2.23433 1.81488 1.81488 
1.828 2 1 1 0 0.100693 -0.203784 10.047758 1.9090 1.6913 0.1920 0.1994 0.5562 0.0429 0.108827 2.954047 1.909 0.191989 0.191989 1.909 1.909 0 0 0 1.909 1.909 1.69135 0.19935 0.19935 1.69135 1.69135 0 0 0 1.69135 1.69135 0.5 0.558253 0.577779 0 0.5 -0.427785 -0.427785 2.22796 1.80017 1.80017 
1.838 2 1 1 0 0.069526 -0.273311 9.966245 1.8919 1.6742 0.1789 0.1939 0.5582 0.0431 0.108827 2.953998 1.89185 0.178934 0.178934 1.89185 1.89185 0 0 0 1.89185 1.89185 1.6742 0.193865 0.193865 1.6742 1.6742 0 0 0 1.6742 1.6742 0.5 0.560261 0.579712 0 0.5 -0.438418 -0.438418 2.22144 1.78302 1.78302 
1.848 2 1 1 0 0.095898 -0.251733 9.949463 1.8745 1.6568 0.1916 0.1921 0.5602 0.0433 0.108827 2.953966 1.87445 0.191645 0.191645 1.87445 1.87445 0 0 0 1.87445 1.87445 1.6568 0.192142 0.192142 1.6568 1.6568 0 0 0 1.6568 1.6568 0.5 0.562269 0.581666 0 0.5 -0.449162 -0.449162 2.21479 1.76562 1.76562 
1.858 2 1 1 0 0.091104 -0.191797 10.054951 1.8616 1.6388 0.1820 0.1884 0.5620 0.0435 0.111418 2.953930 1.86162 0.18197 0.18197 1.86162 1.86162 0 0 0 1.86162 1.86162 1.63878 0.188371 0.188371 1.63878 1.63878 0 0 0 1.63878 1.63878 0.5 0.564076 0.583234 0 0.5 -0.457785 -0.457785 2.20799 1.7502 1.7502 
1.868 2 1 1 0 0.146245 -0.153437 10.107695 1.8434 1.6257 0.1707 0.1777 0.5638 0.0437 0.108827 2.953942 1.84335 0.170731 0.170731 1.84335 1.84335 0 0 0 1.84335 1.84335 1.6257 0.177736 0.177736 1.6257 1.6257 0 0 0 1.6257 1.6257 0.5 0.565883 0.584822 0 0.5 -0.466523 -0.466523 2.20105 1.73452 1.73452 
1.878 2 1 1 0 0.225361 -0.035962 10.153247 1.8296 1.6120 0.1775 0.1821 0.5654 0.0439 0.108827 2.953994 1.82962 0.177481 0.177481 1.82962 1.82962 0 0 0 1.82962 1.82962 1.61196 0.182097 0.182097 1.61196 1.61196 0 0 0 1.61196 1.61196 0.5 0.56749 0.586036 0 0.5 -0.473198 -0.473198 2.19399 1.72079 1.72079 
1.888 2 1 1 0 0.182207 0.011987 10.184414 1.8112 1.5936 0.1739 0.1681 0.5674 0.0441 0.108827 2.954078 1.81122 0.173888 0.173888 1.81122 1.81122 0 0 0 1.81122 1.81122 1.59357 0.168052 0.168052 1.59357 1.59357 0 0 0 1.59357 1.59357 0.5 0.569498 0.588072 0 0.5 -0.484398 -0.484398 2.18679 1.70239 1.70239 
1.898 2 1 1 0 0.127065 0.043154 10.210786 1.7970 1.5793 0.1910 0.1669 0.5690 0.0443 0.108827 2.954116 1.79699 0.191007 0.191007 1.79699 1.79699 0 0 0 1.79699 1.79699 1.57933 0.1669 0.1669 1.57933 1.57933 0 0 0 1.57933 1.57933 0.5 0.571104 0.589329 0 0.5 -0.491311 -0.491311 2.17947 1.68816 1.68816 
1.908 2 1 1 0 0.151040 -0.002397 10.162837 1.7777 1.5652 0.1666 0.1666 0.5708 0.0445 0.106236 2.954148 1.77772 0.166609 0.166609 1.77772 1.77772 0 0 0 1.77772 1.77772 1.56525 0.166597 0.166597 1.56525 1.56525 0 0 0 1.56525 1.56525 0.5 0.572912 0.591006 0 0.5 -0.500533 -0.500533 2.17201 1.67148 1.67148 
1.918 2 1 1 0 0.187002 0.038359 10.062143 1.7634 1.5457 0.1778 0.1699 0.5726 0.0447 0.108827 2.954144 1.76338 0.177775 0.177775 1.76338 1.76338 0 0 0 1.76338 1.76338 1.54573 0.16988 0.16988 1.54573 1.54573 0 0 0 1.54573 1.54573 0.5 0.574719 0.592706 0 0.5 -0.509883 -0.509883 2.16444 1.65455 1.65455 
1.928 2 1 1 0 0.110283 -0.019180 10.059746 1.7484 1.5308 0.1623 0.1712 0.5742 0.0449 0.108827 2.954128 1.74844 0.162294 0.162294 1.74844 1.74844 0 0 0 1.74844 1.74844 1.53079 0.171204 0.171204 1.53079 1.53079 0 0 0 1.53079 1.53079 0.5 0.576325 0.59402 0 0.5 -0.517111 -0.517111 2.15673 1.63962 1.63962 
1.938 2 1 1 0 0.038359 -0.091104 10.050156 1.7285 1.5160 0.1778 0.1703 0.5760 0.0451 0.106236 2.954067 1.72847 0.177779 0.177779 1.72847 1.72847 0 0 0 1.72847 1.72847 1.516 0.170309 0.170309 1.516 1.516 0 0 0 1.516 1.516 0.5 0.578133 0.595756 0 0.5 -0.526658 -0.526658 2.14889 1.62223 1.62223 
1.948 2 1 1 0 0.059937 -0.079116 10.105297 1.7131 1.5006 0.1795 0.1706 0.5776 0.0452 0.106236 2.953987 1.71305 0.179463 0.179463 1.71305 1.71305 0 0 0 1.71305 1.71305 1.50058 0.170638 0.170638 1.50058 1.50058 0 0 0 1.50058 1.50058 0.5 0.579739 0.597113 0 0.5 -0.53412 -0.53412 2.14094 1.60682 1.60682 
1.958 2 1 1 0 0.040757 -0.081514 10.078925 1.6974 1.4850 0.1670 0.1646 0.5792 0.0454 0.106236 2.953893 1.69744 0.167024 0.167024 1.69744 1.69744 0 0 0 1.69744 1.69744 1.48497 0.164578 0.164578 1.48497 1.48497 0 0 0 1.48497 1.48497 0.5 0.581345 0.598481 0 0.5 -0.541644 -0.541644 2.13285 1.59121 1.59121 
1.968 2 1 1 0 -0.004795 -0.172617 10.023784 1.6816 1.4691 0.1573 0.1610 0.5808 0.0456 0.106236 2.953843 1.68158 0.157302 0.157302 1.68158 1.68158 0 0 0 1.68158 1.68158 1.4691 0.160996 0.160996 1.4691 1.4691 0 0 0 1.4691 1.4691 0.5 0.582952 0.599874 0 0.5 -0.54931 -0.54931 2.12465 1.57534 1.57534 
1.978 2 1 1 0 0.031167 -0.244541 9.927885 1.6655 1.4530 0.1634 0.1591 0.5824 0.0458 0.106236 2.953802 1.66548 0.163392 0.163392 1.66548 1.66548 0 0 0 1.66548 1.66548 1.45301 0.15913 0.15913 1.45301 1.45301 0 0 0 1.45301 1.45301 0.5 0.584558 0.601288 0 0.5 -0.557083 -0.557083 2.11633 1.55925 1.55925 
1.988 2 1 1 0 0.076719 -0.230156 9.975835 1.6491 1.4367 0.1603 0.1602 0.5840 0.0459 0.106236 2.953791 1.64913 0.16034 0.16034 1.64913 1.64913 0 0 0 1.64913 1.64913 1.43666 0.160158 0.160158 1.43666 1.43666 0 0 0 1.43666 1.43666 0.5 0.586165 0.602729 0 0.5 -0.565011 -0.565011 2.10791 1.54289 1.54289 
1.998 2 1 1 0 0.184604 -0.290093 10.035771 1.6326 1.4201 0.1585 0.1536 0.5856 0.0461 0.106236 2.953836 1.63257 0.158512 0.158512 1.63257 1.63257 0 0 0 1.63257 1.63257 1.4201 0.153609 0.153609 1.4201 1.4201 0 0 0 1.4201 1.4201 0.5 0.587771 0.604187 0 0.5 -0.573027 -0.573027 2.09936 1.52633 1.52633 
2.008 2 1 1 0 0.342837 -0.047949 10.045361 1.6206 1.4029 0.1405 0.1529 0.5870 0.0463 0.108827 2.953908 1.62056 0.140471 0.140471 1.62056 1.62056 0 0 0 1.62056 1.62056 1.40291 0.15289 0.15289 1.40291 1.40291 0 0 0 1.40291 1.40291 0.5 0.589177 0.605269 0 0.5 -0.578979 -0.578979 2.09072 1.51174 1.51174 
2.018 2 1 1 0 0.151040 -0.083911 10.131670 1.6035 1.3859 0.1552 0.1485 0.5886 0.0464 0.108827 2.954038 1.60354 0.155192 0.155192 1.60354 1.60354 0 0 0 1.60354 1.60354 1.38588 0.148456 0.148456 1.38588 1.38588 0 0 0 1.38588 1.38588 0.5 0.590783 0.606773 0 0.5 -0.58725 -0.58725 2.08196 1.49471 1.49471 
2.028 2 1 1 0 0.222964 -0.052744 10.165234 1.5859 1.3734 0.1399 0.1404 0.5900 0.0466 0.106236 2.954141 1.5859 0.139882 0.139882 1.5859 1.5859 0 0 0 1.5859 1.5859 1.37343 0.140434 0.140434 1.37343 1.37343 0 0 0 1.37343 1.37343 0.5 0.592189 0.607896 0 0.5 -0.593429 -0.593429 2.07309 1.47966 1.47966 
2.038 2 1 1 0 0.225361 -0.071924 10.071733 1.5684 1.3559 0.1541 0.1478 0.5916 0.0467 0.106236 2.954221 1.5684 0.154086 0.154086 1.5684 1.5684 0 0 0 1.5684 1.5684 1.35593 0.147792 0.147792 1.35593 1.35593 0 0 0 1.35593 1.35593 0.5 0.593796 0.609449 0 0.5 -0.601969 -0.601969 2.06413 1.46216 1.46216 
2.048 2 1 1 0 0.261323 0.038359 10.050156 1.5551 1.3426 0.1398 0.1379 0.5928 0.0469 0.106236 2.954268 1.55512 0.139839 0.139839 1.55512 1.55512 0 0 0 1.55512 1.55512 1.34265 0.137936 0.137936 1.34265 1.34265 0 0 0 1.34265 1.34265 0.5 0.595 0.610214 0 0.5 -0.606176 -0.606176 2.05506 1.44888 1.44888 
2.058 2 1 1 0 0.139053 -0.112681 10.117285 1.5372 1.3247 0.1527 0.1504 0.5944 0.0470 0.106236 2.954308 1.53721 0.152689 0.152689 1.53721 1.53721 0 0 0 1.53721 1.53721 1.32474 0.150388 0.150388 1.32474 1.32474 0 0 0 1.32474 1.32474 0.5 0.596607 0.611802 0 0.5 -0.61491 -0.61491 2.04588 1.43097 1.43097 
2.068 2 1 1 0 0.103091 -0.095898 10.052553 1.5187 1.3114 0.1495 0.1302 0.5958 0.0472 0.103645 2.954248 1.51872 0.149453 0.149453 1.51872 1.51872 0 0 0 1.51872 1.51872 1.31143 0.130181 0.130181 1.31143 1.31143 0 0 0 1.31143 1.31143 0.5 0.598013 0.613004 0 0.5 -0.62152 -0.62152 2.03659 1.41507 1.41507 
2.078 2 1 1 0 0.074321 -0.163027 10.138862 1.5052 1.2927 0.1438 0.1423 0.5972 0.0473 0.106236 2.954142 1.50521 0.143814 0.143814 1.50521 1.50521 0 0 0 1.50521 1.50521 1.29274 0.142338 0.142338 1.29274 1.29274 0 0 0 1.29274 1.29274 0.5 0.599418 0.614224 0 0.5 -0.62823 -0.62823 2.0272 1.39897 1.39897 
2.088 2 1 1 0 0.007192 -0.103091 9.908706 1.4863 1.2790 0.1304 0.1367 0.5986 0.0475 0.103645 2.954039 1.48633 0.130426 0.130426 1.48633 1.48633 0 0 0 1.48633 1.48633 1.27904 0.136744 0.136744 1.27904 1.27904 0 0 0 1.27904 1.27904 0.5 0.600824 0.615458 0 0.5 -0.63502 -0.63502 2.0177 1.38268 1.38268 
2.098 2 1 1 0 -0.004795 -0.172617 9.980630 1.4724 1.2599 0.1339 0.1331 0.6000 0.0476 0.106236 2.953914 1.47241 0.13393 0.13393 1.47241 1.47241 0 0 0 1.47241 1.47241 1.25994 0.13312 0.13312 1.25994 1.25994 0 0 0 1.25994 1.25994 0.5 0.60223 0.616716 0 0.5 -0.64194 -0.64194 2.00811 1.36617 1.36617 
2.108 2 1 1 0 -0.069526 -0.167822 10.112490 1.4531 1.2458 0.1343 0.1307 0.6014 0.0478 0.103645 2.953787 1.4531 0.134276 0.134276 1.4531 1.4531 0 0 0 1.4531 1.4531 1.24581 0.130654 0.130654 1.24581 1.24581 0 0 0 1.24581 1.24581 0.5 0.603635 0.617995 0 0.5 -0.648975 -0.648975 1.99843 1.34945 1.34945 
2.118 2 1 1 0 0.014385 -0.091104 10.174824 1.4384 1.2311 0.1162 0.1225 0.6026 0.0479 0.103645 2.953715 1.43836 0.116205 0.116205 1.43836 1.43836 0 0 0 1.43836 1.43836 1.23107 0.122462 0.122462 1.23107 1.23107 0 0 0 1.23107 1.23107 0.5 0.60484 0.618897 0 0.5 -0.653935 -0.653935 1.98865 1.33472 1.33472 
2.128 2 1 1 0 0.146245 -0.016782 10.011797 1.4234 1.2161 0.1504 0.1376 0.6038 0.0480 0.103645 2.953632 1.4234 0.150372 0.150372 1.4234 1.4234 0 0 0 1.4234 1.4234 1.21611 0.137619 0.137619 1.21611 1.21611 0 0 0 1.21611 1.21611 0.5 0.606045 0.619825 0 0.5 -0.659039 -0.659039 1.97879 1.31976 1.31976 
2.138 2 1 1 0 0.103091 -0.069526 10.026181 1.4083 1.2010 0.1169 0.1245 0.6050 0.0482 0.103645 2.953619 1.40825 0.116941 0.116941 1.40825 1.40825 0 0 0 1.40825 1.40825 1.20096 0.124547 0.124547 1.20096 1.20096 0 0 0 1.20096 1.20096 0.5 0.60725 0.620769 0 0.5 -0.66423 -0.66423 1.96884 1.30461 1.30461 
2.148 2 1 1 0 0.136655 -0.143848 9.995014 1.3929 1.1856 0.1301 0.1155 0.6062 0.0483 0.103645 2.953671 1.39289 0.130098 0.130098 1.39289 1.39289 0 0 0 1.39289 1.39289 1.1856 0.115477 0.115477 1.1856 1.1856 0 0 0 1.1856 1.1856 0.5 0.608455 0.621739 0 0.5 -0.669566 -0.669566 1.95881 1.28924 1.28924 
2.158 2 1 1 0 0.215771 -0.050347 10.177221 1.3725 1.1704 0.1316 0.1191 0.6076 0.0484 0.101054 2.953767 1.37253 0.131617 0.131617 1.37253 1.37253 0 0 0 1.37253 1.37253 1.17043 0.119095 0.119095 1.17043 1.17043 0 0 0 1.17043 1.17043 0.5 0.60986 0.623127 0 0.5 -0.6772 -0.6772 1.94868 1.27148 1.27148 
2.168 2 1 1 0 0.282900 -0.091104 10.069336 1.3568 1.1547 0.1140 0.1103 0.6088 0.0486 0.101054 2.953911 1.35677 0.113967 0.113967 1.35677 1.35677 0 0 0 1.35677 1.35677 1.15466 0.110256 0.110256 1.15466 1.15466 0 0 0 1.15466 1.15466 0.5 0.611065 0.624137 0 0.5 -0.682756 -0.682756 1.93847 1.25572 1.25572 
2.178 2 1 1 0 0.227759 -0.117476 10.016591 1.3408 1.1387 0.1363 0.1161 0.6099 0.0487 0.101054 2.954057 1.34081 0.136275 0.136275 1.34081 1.34081 0 0 0 1.34081 1.34081 1.1387 0.116058 0.116058 1.1387 1.1387 0 0 0 1.1387 1.1387 0.5 0.61227 0.625169 0 0.5 -0.688429 -0.688429 1.92819 1.23976 1.23976 
2.188 2 1 1 0 0.316465 -0.148643 10.059746 1.3247 1.1226 0.1087 0.1156 0.6111 0.0488 0.101054 2.954222 1.32468 0.108727 0.108727 1.32468 1.32468 0 0 0 1.32468 1.32468 1.12257 0.115604 0.115604 1.12257 1.12257 0 0 0 1.12257 1.12257 0.5 0.613475 0.626216 0 0.5 -0.694188 -0.694188 1.91781 1.22362 1.22362 
2.198 2 1 1 0 0.196592 -0.170220 10.086118 1.3083 1.1062 0.1242 0.1039 0.6123 0.0489 0.101054 2.954350 1.30833 0.124154 0.124154 1.30833 1.30833 0 0 0 1.30833 1.30833 1.10622 0.103854 0.103854 1.10622 1.10622 0 0 0 1.10622 1.10622 0.5 0.61468 0.627289 0 0.5 -0.700089 -0.700089 1.90736 1.20727 1.20727 
2.208 2 1 1 0 0.234951 -0.206182 10.007002 1.2914 1.0945 0.1203 0.1138 0.6133 0.0490 0.098463 2.954390 1.2914 0.120301 0.120301 1.2914 1.2914 0 0 0 1.2914 1.2914 1.09448 0.113789 0.113789 1.09448 1.09448 0 0 0 1.09448 1.09448 0.5 0.615684 0.627981 0 0.5 -0.703895 -0.703895 1.89684 1.19294 1.19294 
2.218 2 1 1 0 0.055142 -0.234951 9.889526 1.2795 1.0774 0.1010 0.1181 0.6143 0.0491 0.101054 2.954384 1.27949 0.101013 0.101013 1.27949 1.27949 0 0 0 1.27949 1.27949 1.07738 0.118078 0.118078 1.07738 1.07738 0 0 0 1.07738 1.07738 0.5 0.616688 0.62869 0 0.5 -0.707795 -0.707795 1.88623 1.17844 1.17844 
2.228 2 1 1 0 0.035962 -0.189399 10.052553 1.2626 1.0605 0.1176 0.1003 0.6155 0.0492 0.101054 2.954305 1.26258 0.117563 0.117563 1.26258 1.26258 0 0 0 1.26258 1.26258 1.06047 0.100347 0.100347 1.06047 1.06047 0 0 0 1.06047 1.06047 0.5 0.617893 0.629824 0 0.5 -0.71403 -0.71403 1.87555 1.16152 1.16152 
2.238 2 1 1 0 -0.014385 -0.122271 10.047758 1.2455 1.0434 0.1206 0.1103 0.6167 0.0494 0.101054 2.954190 1.2455 0.120602 0.120602 1.2455 1.2455 0 0 0 1.2455 1.2455 1.04339 0.110341 0.110341 1.04339 1.04339 0 0 0 1.04339 1.04339 0.5 0.619097 0.630973 0 0.5 -0.720349 -0.720349 1.86479 1.14445 1.14445 
2.248 2 1 1 0 0.028770 -0.083911 10.129272 1.2279 1.0310 0.0988 0.1053 0.6177 0.0495 0.098463 2.954016 1.22788 0.0987651 0.0987651 1.22788 1.22788 0 0 0 1.22788 1.22788 1.03095 0.105299 0.105299 1.03095 1.03095 0 0 0 1.03095 1.03095 0.5 0.620101 0.631735 0 0.5 -0.72454 -0.72454 1.85396 1.12942 1.12942 
2.258 2 1 1 0 -0.019180 0.031167 10.076528 1.2148 1.0179 0.1031 0.0920 0.6185 0.0495 0.098463 2.953887 1.21484 0.103051 0.103051 1.21484 1.21484 0 0 0 1.21484 1.21484 1.01791 0.0919783 0.0919783 1.01791 1.01791 0 0 0 1.01791 1.01791 0.5 0.620905 0.632125 0 0.5 -0.726685 -0.726685 1.84306 1.11638 1.11638 
2.268 2 1 1 0 -0.043154 -0.016782 10.126875 1.1972 1.0003 0.1096 0.0963 0.6197 0.0497 0.098463 2.953758 1.19721 0.109642 0.109642 1.19721 1.19721 0 0 0 1.19721 1.19721 1.00028 0.0963397 0.0963397 1.00028 1.00028 0 0 0 1.00028 1.00028 0.5 0.62211 0.633337 0 0.5 -0.733352 -0.733352 1.8321 1.09874 1.09874 
2.278 2 1 1 0 -0.002397 0.040757 10.134068 1.1838 0.9869 0.0865 0.1024 0.6205 0.0497 0.098463 2.953697 1.18382 0.0864738 0.0864738 1.18382 1.18382 0 0 0 1.18382 1.18382 0.98689 0.102394 0.102394 0.98689 0.98689 0 0 0 0.98689 0.98689 0.5 0.622913 0.633766 0 0.5 -0.735712 -0.735712 1.82106 1.08535 1.08535 
2.288 2 1 1 0 0.079116 -0.069526 10.107695 1.1702 0.9733 0.0856 0.0874 0.6213 0.0498 0.098463 2.953686 1.17022 0.0855877 0.0855877 1.17022 1.17022 0 0 0 1.17022 1.17022 0.973293 0.0873783 0.0873783 0.973293 0.973293 0 0 0 0.973293 0.973293 0.5 0.623716 0.634222 0 0.5 -0.738223 -0.738223 1.80998 1.07176 1.07176 
2.298 2 1 1 0 0.083911 -0.095898 10.033374 1.1520 0.9551 0.1192 0.0821 0.6225 0.0499 0.098463 2.953731 1.15202 0.119162 0.119162 1.15202 1.15202 0 0 0 1.15202 1.15202 0.955092 0.0820862 0.0820862 0.955092 0.955092 0 0 0 0.955092 0.955092 0.5 0.624921 0.635506 0 0.5 -0.745281 -0.745281 1.79884 1.05355 1.05355 
2.308 2 1 1 0 0.237349 -0.177412 9.947065 1.1381 0.9411 0.0904 0.1029 0.6233 0.0500 0.098463 2.953839 1.13807 0.0904143 0.0904143 1.13807 1.13807 0 0 0 1.13807 1.13807 0.941148 0.102923 0.102923 0.941148 0.941148 0 0 0 0.941148 0.941148 0.5 0.625724 0.636003 0 0.5 -0.748018 -0.748018 1.78763 1.03961 1.03961 
2.318 2 1 1 0 0.227759 -0.148643 10.028579 1.1239 0.9270 0.0731 0.0906 0.6241 0.0501 0.098463 2.953957 1.12394 0.0731489 0.0731489 1.12394 1.12394 0 0 0 1.12394 1.12394 0.927013 0.0906336 0.0906336 0.927013 0.927013 0 0 0 0.927013 0.927013 0.5 0.626527 0.636526 0 0.5 -0.750893 -0.750893 1.77637 1.02548 1.02548 
2.328 2 1 1 0 0.249336 -0.163027 9.91 1.10961 0.09441 0.09441 1.10961 1.10961 0 0 0 1.10961 1.10961 0.912686 0.0793103 0.0793103 0.912686 0.912686 0 0 0 0.912686 0.912686 0.5 0.627331 0.637075 0 0.5 -0.753912 -0.753912 1.76506 1.01115 1.01115 
2.338 2 1 1 0 0.273311 -0.179810 9.913501 1.0903 0.8986 0.1015 0.0775 0.6259 0.0503 0.095872 2.954178 1.09034 0.101476 0.101476 1.09034 1.09034 0 0 0 1.09034 1.09034 0.898598 0.077485 0.077485 0.898598 0.898598 0 0 0 0.898598 0.898598 0.5 0.628335 0.63804 0 0.5 -0.75922 -0.75922 1.75369 0.99447 0.99447 
2.348 2 1 1 0 0.203784 -0.206182 9.992617 1.0757 0.8840 0.0766 0.0888 0.6267 0.0504 0.095872 2.954285 1.07573 0.0766062 0.0766062 1.07573 1.07573 0 0 0 1.07573 1.07573 0.883983 0.0888336 0.0888336 0.883983 0.883983 0 0 0 0.883983 0.883983 0.5 0.629138 0.638619 0 0.5 -0.762402 -0.762402 1.74226 0.979854 0.979854 
2.358 2 1 1 0 0.177412 -0.222964 10.136464 1.0609 0.8692 0.0754 0.0789 0.6275 0.0504 0.095872 2.954339 1.06094 0.0753982 0.0753982 1.06094 1.06094 0 0 0 1.06094 1.06094 0.869194 0.0788793 0.0788793 0.869194 0.869194 0 0 0 0.869194 0.869194 0.5 0.629941 0.63922 0 0.5 -0.765709 -0.765709 1.73077 0.965065 0.965065 
2.368 2 1 1 0 0.105488 -0.184604 10.002207 1.0460 0.8542 0.0919 0.0630 0.6283 0.0505 0.095872 2.954309 1.04598 0.0918812 0.0918812 1.04598 1.04598 0 0 0 1.04598 1.04598 0.854236 0.0629945 0.0629945 0.854236 0.854236 0 0 0 0.854236 0.854236 0.5 0.630744 0.639843 0 0.5 -0.769138 -0.769138 1.71924 0.950107 0.950107 
2.378 2 1 1 0 0.050347 -0.191797 10.090913 1.0257 0.8443 0.0892 0.0606 0.6291 0.0506 0.090689 2.954223 1.02567 0.0892275 0.0892275 1.02567 1.02567 0 0 0 1.02567 1.02567 0.844288 0.0605555 0.0605555 0.844288 0.844288 0 0 0 0.844288 0.844288 0.5 0.631548 0.64049 0 0.5 -0.772693 -0.772693 1.70767 0.934977 0.934977 
2.388 2 1 1 0 0.023975 -0.098296 10.095708 1.0152 0.8286 0.0626 0.0763 0.6297 0.0506 0.093280 2.954159 1.01518 0.0626306 0.0626306 1.01518 1.01518 0 0 0 1.01518 1.01518 0.828617 0.0762662 0.0762662 0.828617 0.828617 0 0 0 0.828617 0.828617 0.5 0.63215 0.640755 0 0.5 -0.774152 -0.774152 1.69605 0.921897 0.921897 
2.398 2 1 1 0 0.167822 -0.035962 10.042964 0.9997 0.8131 0.0649 0.0801 0.6305 0.0507 0.093280 2.954025 0.999707 0.0648984 0.0648984 0.999707 0.999707 0 0 0 0.999707 0.999707 0.813147 0.0800506 0.0800506 0.813147 0.813147 0 0 0 0.813147 0.813147 0.5 0.632953 0.641448 0 0.5 -0.777966 -0.777966 1.68439 0.906427 0.906427 
2.408 2 1 1 0 0.016782 -0.019180 9.867949 0.9841 0.7975 0.0865 0.0616 0.6313 0.0508 0.093280 2.953883 0.984095 0.0865064 0.0865064 0.984095 0.984095 0 0 0 0.984095 0.984095 0.797534 0.0615933 0.0615933 0.797534 0.797534 0 0 0 0.797534 0.797534 0.5 0.633756 0.642159 0 0.5 -0.781874 -0.781874 1.67269 0.890815 0.890815 
2.418 2 1 1 0 0.000000 -0.026372 10.002207 0.9680 0.7866 0.0849 0.0583 0.6319 0.0508 0.090689 2.953756 0.96796 0.0849361 0.0849361 0.96796 0.96796 0 0 0 0.96796 0.96796 0.786582 0.0583254 0.0583254 0.786582 0.786582 0 0 0 0.786582 0.786582 0.5 0.634359 0.642485 0 0.5 -0.783666 -0.783666 1.66094 0.877271 0.877271 
2.428 2 1 1 0 0.064731 0.000000 10.177221 0.9569 0.7703 0.0612 0.0626 0.6325 0.0509 0.093280 2.953691 0.956852 0.0611983 0.0611983 0.956852 0.956852 0 0 0 0.956852 0.956852 0.770291 0.0625887 0.0625887 0.770291 0.770291 0 0 0 0.770291 0.770291 0.5 0.634961 0.642832 0 0.5 -0.785578 -0.785578 1.64915 0.863571 0.863571 
2.438 2 1 1 0 0.014385 -0.023975 10.107695 0.9408 0.7542 0.0578 0.0762 0.6333 0.0510 0.093280 2.953643 0.940791 0.0577696 0.0577696 0.940791 0.940791 0 0 0 0.940791 0.940791 0.75423 0.0761842 0.0761842 0.75423 0.75423 0 0 0 0.75423 0.75423 0.5 0.635764 0.643602 0 0.5 -0.789811 -0.789811 1.63732 0.84751 0.84751 
2.448 2 1 1 0 0.134258 0.050347 10.030976 0.9294 0.7376 0.0572 0.0723 0.6339 0.0510 0.095872 2.953691 0.929384 0.057168 0.057168 0.929384 0.929384 0 0 0 0.929384 0.929384 0.737641 0.0722535 0.0722535 0.737641 0.737641 0 0 0 0.737641 0.737641 0.5 0.636367 0.643989 0 0.5 -0.791942 -0.791942 1.62545 0.833513 0.833513 
2.458 2 1 1 0 0.234951 0.031167 10.035771 0.9079 0.7265 0.0927 0.0580 0.6347 0.0511 0.090689 2.953806 0.90789 0.0926513 0.0926513 0.90789 0.90789 0 0 0 0.90789 0.90789 0.726511 0.0579565 0.0579565 0.726511 0.726511 0 0 0 0.726511 0.726511 0.5 0.63717 0.644789 0 0.5 -0.796337 -0.796337 1.61354 0.817201 0.817201 
2.468 2 1 1 0 0.232554 -0.064731 10.014194 0.8959 0.7145 0.0757 0.0437 0.6351 0.0511 0.090689 2.953960 0.895868 0.0757115 0.0757115 0.895868 0.895868 0 0 0 0.895868 0.895868 0.714489 0.0437358 0.0437358 0.714489 0.714489 0 0 0 0.714489 0.714489 0.5 0.637572 0.6448 0 0.5 -0.796402 -0.796402 1.60158 0.805178 0.805178 
2.478 2 1 1 0 0.321260 -0.206182 10.050156 0.8837 0.7023 0.0463 0.0459 0.6355 0.0512 0.090689 2.954104 0.883653 0.0462536 0.0462536 0.883653 0.883653 0 0 0 0.883653 0.883653 0.702274 0.045861 0.045861 0.702274 0.702274 0 0 0 0.702274 0.702274 0.5 0.637973 0.644844 0 0.5 -0.796644 -0.796644 1.58961 0.792964 0.792964 
2.488 2 1 1 0 0.239746 -0.139053 10.033374 0.8717 0.6851 0.0354 0.0649 0.6361 0.0512 0.093280 2.954243 0.871653 0.0354239 0.0354239 0.871653 0.871653 0 0 0 0.871653 0.871653 0.685092 0.0649234 0.0649234 0.685092 0.685092 0 0 0 0.685092 0.685092 0.5 0.638576 0.645317 0 0.5 -0.799242 -0.799242 1.57761 0.778373 0.778373 
2.498 2 1 1 0 0.244541 -0.290093 9.879936 0.8595 0.6678 0.0329 0.0678 0.6367 0.0513 0.095872 2.954347 0.859494 0.0328582 0.0328582 0.859494 0.859494 0 0 0 0.859494 0.859494 0.667751 0.0677551 0.0677551 0.667751 0.667751 0 0 0 0.667751 0.667751 0.5 0.639178 0.645814 0 0.5 -0.801979 -0.801979 1.5656 0.763623 0.763623 
2.508 2 1 1 0 0.184604 -0.306875 9.841577 0.8468 0.6551 0.0386 0.0529 0.6371 0.0513 0.095872 2.954378 0.846821 0.0386144 0.0386144 0.846821 0.846821 0 0 0 0.846821 0.846821 0.655078 0.052898 0.052898 0.655078 0.655078 0 0 0 0.655078 0.655078 0.5 0.63958 0.645929 0 0.5 -0.802612 -0.802612 1.55356 0.75095 0.75095 
2.518 2 1 1 0 0.059937 -0.210977 10.004604 0.8292 0.6426 0.0699 0.0347 0.6377 0.0514 0.093280 2.954335 0.829196 0.0699039 0.0699039 0.829196 0.829196 0 0 0 0.829196 0.829196 0.642635 0.034731 0.034731 0.642635 0.642635 0 0 0 0.642635 0.642635 0.5 0.640182 0.646471 0 0.5 -0.805588 -0.805588 1.5415 0.735915 0.735915 
2.528 2 1 1 0 0.095898 -0.270913 10.122080 0.8111 0.6349 0.0583 0.0343 0.6381 0.0514 0.088098 2.954233 0.811076 0.0582958 0.0582958 0.811076 0.811076 0 0 0 0.811076 0.811076 0.634879 0.0343447 0.0343447 0.634879 0.634879 0 0 0 0.634879 0.634879 0.5 0.640584 0.646624 0 0.5 -0.806434 -0.806434 1.52941 0.722977 0.722977 
2.538 2 1 1 0 -0.081514 -0.103091 10.196401 0.8028 0.6214 0.0399 0.0243 0.6383 0.0514 0.090689 2.954125 0.802774 0.0399444 0.0399444 0.802774 0.802774 0 0 0 0.802774 0.802774 0.621396 0.0243286 0.0243286 0.621396 0.621396 0 0 0 0.621396 0.621396 0.5 0.640785 0.646405 0 0.5 -0.805225 -0.805225 1.51731 0.712085 0.712085 
2.548 2 1 1 0 -0.019180 -0.134258 10.177221 0.7891 0.6129 0.0307 0.0243 0.6385 0.0515 0.088098 2.954019 0.789086 0.0307284 0.0307284 0.789086 0.789086 0 0 0 0.789086 0.789086 0.612889 0.0243286 0.0243286 0.612889 0.612889 0 0 0 0.612889 0.612889 0.5 0.640985 0.646224 0 0.5 -0.804235 -0.804235 1.50522 0.700987 0.700987 
2.558 2 1 1 0 -0.031167 0.009590 10.253941 0.7804 0.5990 0.0236 0.0238 0.6387 0.0515 0.090689 2.953906 0.780398 0.0236478 0.0236478 0.780398 0.780398 0 0 0 0.780398 0.780398 0.599019 0.0237742 0.0237742 0.599019 0.599019 0 0 0 0.599019 0.599019 0.5 0.641186 0.646079 0 0.5 -0.803433 -0.803433 1.49314 0.689709 0.689709 
2.568 2 1 1 0 0.009590 0.079116 10.395391 0.7715 0.5850 0.0149 0.0328 0.6389 0.0515 0.093280 2.953847 0.771512 0.0148853 0.0148853 0.771512 0.771512 0 0 0 0.771512 0.771512 0.584951 0.0328266 0.0328266 0.584951 0.584951 0 0 0 0.584951 0.584951 0.5 0.641387 0.645972 0 0.5 -0.802846 -0.802846 1.48108 0.678231 0.678231 
2.578 2 1 1 0 0.196592 0.287695 10.520059 0.7625 0.5707 0.0109 0.0447 0.6391 0.0515 0.095872 2.953844 0.76247 0.0108595 0.0108595 0.76247 0.76247 0 0 0 0.76247 0.76247 0.570727 0.0446507 0.0446507 0.570727 0.570727 0 0 0 0.570727 0.570727 0.5 0.641588 0.645894 0 0.5 -0.802419 -0.802419 1.46902 0.666599 0.666599 
2.588 2 1 1 0 0.179810 0.069526 10.040566 0.7489 0.5520 0.0096 0.0479 0.6397 0.0516 0.098463 2.953908 0.748913 0.00955775 0.00955775 0.748913 0.748913 0 0 0 0.748913 0.748913 0.551988 0.0479427 0.0479427 0.551988 0.551988 0 0 0 0.551988 0.551988 0.5 0.64219 0.646635 0 0.5 -0.806493 -0.806493 1.45694 0.65045 0.65045 
2.598 2 1 1 0 0.088706 0.038359 10.179619 0.7393 0.5424 0.0096 0.0389 0.6397 0.0516 0.098463 2.953980 0.739301 0.00955775 0.00955775 0.739301 0.739301 0 0 0 0.739301 0.739301 0.542376 0.0388786 0.0388786 0.542376 0.542376 0 0 0 0.542376 0.542376 0.5 0.64219 0.646185 0 0.5 -0.804015 -0.804015 1.44485 0.640838 0.640838 
2.608 2 1 1 0 0.225361 0.004795 10.517661 0.7251 0.5282 0.0194 0.0319 0.6401 0.0516 0.098463 2.954074 0.725148 0.0194139 0.0194139 0.725148 0.725148 0 0 0 0.725148 0.725148 0.528223 0.0319209 0.0319209 0.528223 0.528223 0 0 0 0.528223 0.528223 0.5 0.642592 0.646559 0 0.5 -0.806074 -0.806074 1.43276 0.626685 0.626685 
2.618 2 1 1 0 0.177412 -0.237349 10.150849 0.7105 0.5187 0.0320 0.0226 0.6403 0.0516 0.095872 2.954165 0.710482 0.0320179 0.0320179 0.710482 0.710482 0 0 0 0.710482 0.710482 0.518739 0.0226338 0.0226338 0.518739 0.518739 0 0 0 0.518739 0.518739 0.5 0.642793 0.646556 0 0.5 -0.806057 -0.806057 1.42067 0.61461 0.61461 
2.628 2 1 1 0 0.105488 -0.148643 9.911103 0.6957 0.5092 0.0470 0.0145 0.6405 0.0516 0.093280 2.954244 0.695716 0.046994 0.046994 0.695716 0.695716 0 0 0 0.695716 0.695716 0.509155 0.0144746 0.0144746 0.509155 0.509155 0 0 0 0.509155 0.509155 0.5 0.642994 0.64657 0 0.5 -0.806134 -0.806134 1.40857 0.602436 0.602436 
2.638 2 1 1 0 0.100693 -0.321260 9.937475 0.6761 0.4999 0.0726 0.0106 0.6409 0.0517 0.088098 2.954322 0.676071 0.0726007 0.0726007 0.676071 0.676071 0 0 0 0.676071 0.676071 0.499874 0.0106406 0.0106406 0.499874 0.499874 0 0 0 0.499874 0.499874 0.5 0.643395 0.646997 0 0.5 -0.808485 -0.808485 1.39646 0.587973 0.587973 
2.648 2 1 1 0 0.124668 -0.340439 9.887129 0.6612 0.4902 0.0560 0.0084 0.6411 0.0517 0.085507 2.954294 0.661181 0.0560197 0.0560197 0.661181 0.661181 0 0 0 0.661181 0.661181 0.490167 0.00841132 0.00841132 0.490167 0.490167 0 0 0 0.490167 0.490167 0.5 0.643596 0.647027 0 0.5 -0.808647 -0.808647 1.38432 0.575674 0.575674 
2.658 2 1 1 0 0.074321 -0.273311 9.891924 0.6510 0.4800 0.0294 0.0070 0.6411 0.0517 0.085507 2.954280 0.650964 0.0294049 0.0294049 0.650964 0.650964 0 0 0 0.650964 0.650964 0.47995 0.00695492 0.00695492 0.47995 0.47995 0 0 0 0.47995 0.47995 0.5 0.643596 0.64668 0 0.5 -0.806737 -0.806737 1.37219 0.565457 0.565457 
2.668 2 1 1 0 -0.023975 -0.187002 9.903911 0.6406 0.4696 0.0170 0.0059 0.6411 0.0517 0.085507 2.954223 0.640583 0.0169748 0.0169748 0.640583 0.640583 0 0 0 0.640583 0.640583 0.469569 0.00592811 0.00592811 0.469569 0.469569 0 0 0 0.469569 0.469569 0.5 0.643596 0.646367 0 0.5 -0.805018 -0.805018 1.36009 0.555076 0.555076 
2.678 2 1 1 0 -0.007192 -0.139053 10.100503 0.6301 0.4590 0.0119 0.0052 0.6411 0.0517 0.085507 2.954175 0.630053 0.0119326 0.0119326 0.630053 0.630053 0 0 0 0.630053 0.630053 0.459039 0.00516585 0.00516585 0.459039 0.459039 0 0 0 0.459039 0.459039 0.5 0.643596 0.646086 0 0.5 -0.803472 -0.803472 1.34802 0.544546 0.544546 
2.688 2 1 1 0 0.035962 -0.086309 10.047758 0.6194 0.4484 0.0092 0.0046 0.6411 0.0517 0.085507 2.954094 0.619389 0.00919943 0.00919943 0.619389 0.619389 0 0 0 0.619389 0.619389 0.448375 0.00457713 0.00457713 0.448375 0.448375 0 0 0 0.448375 0.448375 0.5 0.643596 0.645833 0 0.5 -0.802084 -0.802084 1.33597 0.533882 0.533882 
2.698 2 1 1 0 0.098296 -0.069526 10.100503 0.6086 0.4376 0.0075 0.0041 0.6411 0.0517 0.085507 2.954038 0.608608 0.00748577 0.00748577 0.608608 0.608608 0 0 0 0.608608 0.608608 0.437594 0.00410907 0.00410907 0.437594 0.437594 0 0 0 0.437594 0.437594 0.5 0.643596 0.645606 0 0.5 -0.800831 -0.800831 1.32393 0.523101 0.523101 
2.708 2 1 1 0 -0.028770 0.011987 10.177221 0.5977 0.4267 0.0063 0.0037 0.6411 0.0517 0.085507 2.954010 0.597714 0.00630914 0.00630914 0.597714 0.597714 0 0 0 0.597714 0.597714 0.4267 0.00372751 0.00372751 0.4267 0.4267 0 0 0 0.4267 0.4267 0.5 0.643596 0.645402 0 0.5 -0.799709 -0.799709 1.31192 0.512207 0.512207 
2.718 2 1 1 0 0.086309 -0.004795 10.071733 0.5867 0.4157 0.0055 0.0034 0.6411 0.0517 0.085507 2.953981 0.586723 0.0054524 0.0054524 0.586723 0.586723 0 0 0 0.586723 0.586723 0.415709 0.00341085 0.00341085 0.415709 0.415709 0 0 0 0.415709 0.415709 0.5 0.643596 0.645218 0 0.5 -0.7987 -0.7987 1.29992 0.501216 0.501216 
2.728 2 1 1 0 0.160630 0.031167 10.155644 0.5756 0.4046 0.0048 0.0031 0.6411 0.0517 0.085507 2.953985 0.575643 0.00480068 0.00480068 0.575643 0.575643 0 0 0 0.575643 0.575643 0.404629 0.00314386 0.00314386 0.404629 0.404629 0 0 0 0.404629 0.404629 0.5 0.643596 0.645054 0 0.5 -0.797795 -0.797795 1.28793 0.490136 0.490136 
2.738 2 1 1 0 0.196592 0.069526 10.141259 0.5645 0.3935 0.0043 0.0029 0.6411 0.0517 0.085507 2.954022 0.564485 0.00428822 0.00428822 0.564485 0.564485 0 0 0 0.564485 0.564485 0.393471 0.00291569 0.00291569 0.393471 0.393471 0 0 0 0.393471 0.393471 0.5 0.643596 0.644905 0 0.5 -0.79698 -0.79698 1.27596 0.478978 0.478978 
2.748 2 1 1 0 0.093501 -0.057539 10.081323 0.5533 0.3822 0.0039 0.0027 0.6411 0.0517 0.085507 2.954065 0.553257 0.00387461 0.00387461 0.553257 0.553257 0 0 0 0.553257 0.553257 0.382243 0.00271838 0.00271838 0.382243 0.382243 0 0 0 0.382243 0.382243 0.5 0.643596 0.644772 0 0.5 -0.796247 -0.796247 1.264 0.46775 0.46775 
2.758 2 1 1 0 0.059937 -0.074321 10.107695 0.5420 0.3710 0.0035 0.0025 0.6411 0.0517 0.085507 2.954108 0.541966 0.00353361 0.00353361 0.541966 0.541966 0 0 0 0.541966 0.541966 0.370952 0.002546 0.002546 0.370952 0.370952 0 0 0 0.370952 0.370952 0.5 0.643596 0.644652 0 0.5 -0.795587 -0.795587 1.25205 0.456459 0.456459 
2.768 2 1 1 0 0.057539 -0.179810 10.030976 0.5306 0.3596 0.0032 0.0024 0.6411 0.0517 0.085507 2.954123 0.530618 0.00324804 0.00324804 0.530618 0.530618 0 0 0 0.530618 0.530618 0.359604 0.00239432 0.00239432 0.359604 0.359604 0 0 0 0.359604 0.359604 0.5 0.643596 0.644544 0 0.5 -0.794994 -0.794994 1.24011 0.445111 0.445111 
2.778 2 1 1 0 0.091104 -0.246938 10.002207 0.5240 0.3478 -0.0031 0.0023 0.6409 0.0517 0.088098 2.954116 0.523966 -0.00314757 -0.00314757 0.523966 0.523966 0 0 0 0.523966 0.523966 0.34777 0.00225954 0.00225954 0.34777 0.34777 0 0 0 0.34777 0.34777 0.5 0.643395 0.644059 0 0.5 -0.792325 -0.792325 1.22819 0.435868 0.435868 
2.788 2 1 1 0 0.067129 -0.275708 9.906308 0.5124 0.3363 -0.0031 0.0021 0.6409 0.0517 0.088098 2.954091 0.512449 -0.00314757 -0.00314757 0.512449 0.512449 0 0 0 0.512449 0.512449 0.336253 0.00213919 0.00213919 0.336253 0.336253 0 0 0 0.336253 0.336253 0.5 0.643395 0.643991 0 0.5 -0.791948 -0.791948 1.2163 0.424351 0.424351 
2.798 2 1 1 0 0.050347 -0.371606 9.884731 0.5009 0.3247 -0.0031 0.0020 0.6409 0.0517 0.088098 2.954066 0.5009 -0.00314757 -0.00314757 0.5009 0.5009 0 0 0 0.5009 0.5009 0.324703 0.002031 0.002031 0.324703 0.324703 0 0 0 0.324703 0.324703 0.5 0.643395 0.643929 0 0.5 -0.79161 -0.79161 1.20441 0.412802 0.412802 
2.808 2 1 1 0 0.136655 -0.328452 9.911103 0.4893 0.3131 -0.0031 0.0019 0.6409 0.0517 0.088098 2.954062 0.489321 -0.00314757 -0.00314757 0.489321 0.489321 0 0 0 0.489321 0.489321 0.313125 0.00193324 0.00193324 0.313125 0.313125 0 0 0 0.313125 0.313125 0.5 0.643395 0.643874 0 0.5 -0.791305 -0.791305 1.19253 0.401223 0.401223 
2.818 2 1 1 0 0.107886 -0.237349 10.066938 0.4777 0.3015 -0.0031 0.0018 0.6409 0.0517 0.088098 2.954042 0.477716 -0.00314757 -0.00314757 0.477716 0.477716 0 0 0 0.477716 0.477716 0.301519 0.00184448 0.00184448 0.301519 0.301519 0 0 0 0.301519 0.301519 0.5 0.643395 0.643824 0 0.5 -0.791031 -0.791031 1.18065 0.389618 0.389618 
2.828 2 1 1 0 0.117476 -0.230156 10.038169 0.4661 0.2899 -0.0031 0.0018 0.6409 0.0517 0.088098 2.954053 0.466087 -0.00314757 -0.00314757 0.466087 0.466087 0 0 0 0.466087 0.466087 0.28989 0.00176346 0.00176346 0.28989 0.28989 0 0 0 0.28989 0.28989 0.5 0.643395 0.643779 0 0.5 -0.790784 -0.790784 1.16877 0.377989 0.377989 
2.838 2 1 1 0 0.131860 -0.093501 10.052553 0.4544 0.2782 -0.0031 0.0017 0.6409 0.0517 0.088098 2.954093 0.454436 -0.00314757 -0.00314757 0.454436 0.454436 0 0 0 0.454436 0.454436 0.27824 0.00168929 0.00168929 0.27824 0.27824 0 0 0 0.27824 0.27824 0.5 0.643395 0.643739 0 0.5 -0.790562 -0.790562 1.1569 0.366338 0.366338 
2.848 2 1 1 0 0.163027 -0.031167 10.150849 0.4428 0.2666 -0.0031 0.0016 0.6409 0.0517 0.088098 2.954157 0.442767 -0.00314757 -0.00314757 0.442767 0.442767 0 0 0 0.442767 0.442767 0.26657 0.0016211 0.0016211 0.26657 0.26657 0 0 0 0.26657 0.26657 0.5 0.643395 0.643702 0 0.5 -0.790363 -0.790363 1.14503 0.354669 0.354669 
2.858 2 1 1 0 0.110283 0.071924 10.246748 0.4311 0.2549 -0.0031 0.0016 0.6409 0.0517 0.088098 2.954213 0.431079 -0.00314757 -0.00314757 0.431079 0.431079 0 0 0 0.431079 0.431079 0.254883 0.00155821 0.00155821 0.254883 0.254883 0 0 0 0.254883 0.254883 0.5 0.643395 0.64367 0 0.5 -0.790185 -0.790185 1.13317 0.342981 0.342981 
2.868 2 1 1 0 0.160630 0.057539 10.172426 0.4194 0.2432 -0.0031 0.0015 0.6409 0.0517 0.088098 2.954222 0.419377 -0.00314757 -0.00314757 0.419377 0.419377 0 0 0 0.419377 0.419377 0.243181 0.00150001 0.00150001 0.243181 0.243181 0 0 0 0.243181 0.243181 0.5 0.643395 0.643641 0 0.5 -0.790024 -0.790024 1.1213 0.331279 0.331279 
2.878 2 1 1 0 0.095898 0.019180 10.110092 0.4077 0.2315 -0.0031 0.0014 0.6409 0.0517 0.088098 2.954227 0.40766 -0.00314757 -0.00314757 0.40766 0.40766 0 0 0 0.40766 0.40766 0.231464 0.00144602 0.00144602 0.231464 0.231464 0 0 0 0.231464 0.231464 0.5 0.643395 0.643614 0 0.5 -0.789879 -0.789879 1.10944 0.319562 0.319562 
2.888 2 1 1 0 0.052744 0.011987 10.172426 0.3959 0.2197 -0.0031 0.0014 0.6409 0.0517 0.088098 2.954216 0.39593 -0.00314757 -0.00314757 0.39593 0.39593 0 0 0 0.39593 0.39593 0.219734 0.00139578 0.00139578 0.219734 0.219734 0 0 0 0.219734 0.219734 0.5 0.643395 0.643591 0 0.5 -0.78975 -0.78975 1.09758 0.307832 0.307832 
2.898 2 1 1 0 0.079116 -0.069526 10.007002 0.3842 0.2080 -0.0031 0.0013 0.6409 0.0517 0.088098 2.954165 0.384191 -0.00314757 -0.00314757 0.384191 0.384191 0 0 0 0.384191 0.384191 0.207995 0.00134887 0.00134887 0.207995 0.207995 0 0 0 0.207995 0.207995 0.5 0.643395 0.64357 0 0.5 -0.789633 -0.789633 1.08573 0.296093 0.296093 
2.908 2 1 1 0 0.091104 -0.095898 10.059746 0.3724 0.1962 -0.0030 0.0013 0.6409 0.0517 0.088098 2.954096 0.372439 -0.00295181 -0.00295181 0.372439 0.372439 0 0 0 0.372439 0.372439 0.196243 0.00130505 0.00130505 0.196243 0.196243 0 0 0 0.196243 0.196243 0.5 0.643395 0.643551 0 0.5 -0.789528 -0.789528 1.07387 0.284341 0.284341 
2.918 2 1 1 0 0.064731 -0.215771 9.995014 0.3607 0.1845 -0.0027 0.0013 0.6409 0.0517 0.088098 2.954010 0.360679 -0.00274971 -0.00274971 0.360679 0.360679 0 0 0 0.360679 0.360679 0.184483 0.00126398 0.00126398 0.184483 0.184483 0 0 0 0.184483 0.184483 0.5 0.643395 0.643534 0 0.5 -0.789435 -0.789435 1.06202 0.272581 0.272581 
2.928 2 1 1 0 0.040757 -0.227759 9.932680 0.3489 0.1727 -0.0026 0.0012 0.6409 0.0517 0.088098 2.953940 0.348911 -0.00257353 -0.00257353 0.348911 0.348911 0 0 0 0.348911 0.348911 0.172714 0.00122541 0.00122541 0.172714 0.172714 0 0 0 0.172714 0.172714 0.5 0.643395 0.643518 0 0.5 -0.789351 -0.789351 1.05016 0.260812 0.260812 
2.938 2 1 1 0 0.115078 -0.210977 10.026181 0.3371 0.1609 -0.0024 0.0012 0.6409 0.0517 0.088098 2.953902 0.337136 -0.00241855 -0.00241855 0.337136 0.337136 0 0 0 0.337136 0.337136 0.16094 0.00118913 0.00118913 0.16094 0.16094 0 0 0 0.16094 0.16094 0.5 0.643395 0.643504 0 0.5 -0.789273 -0.789273 1.03831 0.249038 0.249038 
2.948 2 1 1 0 -0.009590 -0.215771 10.054951 0.3254 0.1492 -0.0023 0.0012 0.6409 0.0517 0.088098 2.953907 0.325353 -0.00228118 -0.00228118 0.325353 0.325353 0 0 0 0.325353 0.325353 0.149156 0.00115494 0.00115494 0.149156 0.149156 0 0 0 0.149156 0.149156 0.5 0.643395 0.643492 0 0.5 -0.789207 -0.789207 1.02646 0.237255 0.237255 
2.958 2 1 1 0 0.050347 -0.215771 10.038169 0.3136 0.1374 -0.0022 0.0011 0.6409 0.0517 0.088098 2.953901 0.313566 -0.00215858 -0.00215858 0.313566 0.313566 0 0 0 0.313566 0.313566 0.13737 0.00112265 0.00112265 0.13737 0.13737 0 0 0 0.13737 0.13737 0.5 0.643395 0.643481 0 0.5 -0.789144 -0.789144 1.01461 0.225468 0.225468 
2.968 2 1 1 0 0.148643 -0.170220 10.131670 0.3018 0.1256 -0.0020 0.0011 0.6409 0.0517 0.088098 2.953955 0.301771 -0.00204848 -0.00204848 0.301771 0.301771 0 0 0 0.301771 0.301771 0.125574 0.00109212 0.00109212 0.125574 0.125574 0 0 0 0.125574 0.125574 0.5 0.643395 0.643471 0 0.5 -0.78909 -0.78909 1.00276 0.213673 0.213673 
2.978 2 1 1 0 0.079116 -0.086309 10.014194 0.2900 0.1138 -0.0019 0.0011 0.6409 0.0517 0.088098 2.953962 0.289975 -0.00194907 -0.00194907 0.289975 0.289975 0 0 0 0.289975 0.289975 0.113779 0.00106321 0.00106321 0.113779 0.113779 0 0 0 0.113779 0.113779 0.5 0.643395 0.643461 0 0.5 -0.789038 -0.789038 0.990915 0.201877 0.201877 
2.988 2 1 1 0 0.177412 -0.043154 9.983027 0.2782 0.1020 -0.0019 0.0010 0.6409 0.0517 0.088098 2.954021 0.27817 -0.00185886 -0.00185886 0.27817 0.27817 0 0 0 0.27817 0.27817 0.101974 0.00103579 0.00103579 0.101974 0.101974 0 0 0 0.101974 0.101974 0.5 0.643395 0.643454 0 0.5 -0.788995 -0.788995 0.979068 0.190072 0.190072 
2.998 2 1 1 0 0.177412 -0.028770 10.014194 0.2659 0.0949 -0.0018 -0.0010 0.6407 0.0517 0.085507 2.954093 0.265925 -0.00177663 -0.00177663 0.265925 0.265925 0 0 0 0.265925 0.265925 0.0949108 -0.00102701 -0.00102701 0.0949108 0.0949108 0 0 0 0.0949108 0.0949108 0.5 0.643194 0.643059 0 0.5 -0.786825 -0.786825 0.967242 0.180418 0.180418 
3.008 2 1 1 0 0.213374 0.055142 10.054951 0.2540 0.0830 -0.0017 -0.0010 0.6407 0.0517 0.085507 2.954151 0.254037 -0.00170141 -0.00170141 0.254037 0.254037 0 0 0 0.254037 0.254037 0.0830226 -0.00102701 -0.00102701 0.0830226 0.0830226 0 0 0 0.0830226 0.0830226 0.5 0.643194 0.643072 0 0.5 -0.786898 -0.786898 0.955428 0.16853 0.16853 
3.018 2 1 1 0 0.184604 -0.045552 10.110092 0.2422 0.0711 -0.0016 -0.0010 0.6407 0.0517 0.085507 2.954190 0.242155 -0.00163222 -0.00163222 0.242155 0.242155 0 0 0 0.242155 0.242155 0.0711412 -0.00102701 -0.00102701 0.0711412 0.0711412 0 0 0 0.0711412 0.0711412 0.5 0.643194 0.643084 0 0.5 -0.786964 -0.786964 0.943612 0.156648 0.156648 
3.029 2 1 1 0 0.083911 -0.031167 9.963847 0.2291 0.0581 -0.0016 -0.0010 0.6407 0.0517 0.085507 2.954197 0.229092 -0.00156242 -0.00156242 0.229092 0.229092 0 0 0 0.229092 0.229092 0.0580784 -0.00102701 -0.00102701 0.0580784 0.0580784 0 0 0 0.0580784 0.0580784 0.5 0.643194 0.643096 0 0.5 -0.787028 -0.787028 0.930613 0.143585 0.143585 
3.039 2 1 1 0 0.115078 -0.062334 10.100503 0.2172 0.0462 -0.0015 -0.0010 0.6407 0.0517 0.085507 2.954174 0.217223 -0.00150391 -0.00150391 0.217223 0.217223 0 0 0 0.217223 0.217223 0.0462084 -0.00102701 -0.00102701 0.0462084 0.0462084 0 0 0 0.0462084 0.0462084 0.5 0.643194 0.643106 0 0.5 -0.78708 -0.78708 0.918796 0.131715 0.131715 
3.049 2 1 1 0 0.105488 -0.148643 10.122080 0.2054 0.0343 -0.0014 -0.0010 0.6407 0.0517 0.085507 2.954158 0.205356 -0.00144958 -0.00144958 0.205356 0.205356 0 0 0 0.205356 0.205356 0.0343422 -0.00102701 -0.00102701 0.0343422 0.0343422 0 0 0 0.0343422 0.0343422 0.5 0.643194 0.643114 0 0.5 -0.787128 -0.787128 0.906977 0.119849 0.119849 
3.059 2 1 1 0 0.057539 -0.210977 10.105297 0.1935 0.0225 -0.0014 -0.0010 0.6407 0.0517 0.085507 2.954106 0.193497 -0.00139909 -0.00139909 0.193497 0.193497 0 0 0 0.193497 0.193497 0.0224831 -0.00102701 -0.00102701 0.0224831 0.0224831 0 0 0 0.0224831 0.0224831 0.5 0.643194 0.643121 0 0.5 -0.787168 -0.787168 0.895158 0.10799 0.10799 
3.069 2 1 1 0 0.055142 -0.179810 9.959052 0.1816 0.0106 -0.0014 -0.0010 0.6407 0.0517 0.085507 2.954042 0.181638 -0.00135199 -0.00135199 0.181638 0.181638 0 0 0 0.181638 0.181638 0.0106242 -0.00102701 -0.00102701 0.0106242 0.0106242 0 0 0 0.0106242 0.0106242 0.5 0.643194 0.643129 0 0.5 -0.787207 -0.787207 0.883339 0.0961312 0.0961312 
3.079 2 1 1 0 0.007192 -0.232554 9.932680 0.1698 -0.0012 -0.0013 -0.0010 0.6407 0.0517 0.085507 2.953991 0.169783 -0.00130796 -0.00130796 0.169783 0.169783 0 0 0 0.169783 0.169783 -0.00123084 -0.00102701 -0.00102701 -0.00123084 -0.00123084 -0 -0 0 -0.00123084 -0.00123084 0.5 0.643194 0.643135 0 0.5 -0.787242 -0.787242 0.871518 0.0842762 0.0842762 
3.089 2 1 1 0 0.057539 -0.261323 10.028579 0.1579 -0.0131 -0.0013 -0.0010 0.6407 0.0517 0.085507 2.953904 0.157934 -0.00126674 -0.00126674 0.157934 0.1579364314 0 0.5 -0.78727 -0.78727 0.859698 0.0724272 0.0724272 
3.099 2 1 1 0 0.038359 -0.203784 9.951860 0.1461 -0.0249 -0.0012 -0.0010 0.6407 0.0517 0.085507 2.953911 0.146087 -0.00122798 -0.00122798 0.146087 0.146087 0 0 0 0.146087 0.146087 -0.0249268 -0.00102701 -0.00102701 -0.0249268 -0.0249268 -0 -0 0 -0.0249268 -0.0249268 0.5 0.643194 0.643145 0 0.5 -0.787297 -0.787297 0.847877 0.0605802 0.0605802 
3.109 2 1 1 0 0.093501 -0.225361 10.018989 0.1342 -0.0368 -0.0012 -0.0010 0.6407 0.0517 0.085507 2.953945 0.134239 -0.00119155 -0.00119155 0.134239 0.134239 0 0 0 0.134239 0.134239 -0.0367748 -0.00102701 -0.00102701 -0.0367748 -0.0367748 -0 -0 0 -0.0367748 -0.0367748 0.5 0.643194 0.64315 0 0.5 -0.787323 -0.787323 0.836055 0.0487323 0.0487323 
3.119 2 1 1 0 0.179810 -0.139053 10.126875 0.1224 -0.0486 -0.0012 -0.0010 0.6407 0.0517 0.085507 2.954015 0.122392 -0.00115721 -0.00115721 0.122392 0.122392 0 0 0 0.122392 0.122392 -0.0486217 -0.00102701 -0.00102701 -0.0486217 -0.0486217 -0 -0 0 -0.0486217 -0.0486217 0.5 0.643194 0.643154 0 0.5 -0.787348 -0.787348 0.824233 0.0368854 0.0368854 
3.129 2 1 1 0 0.218169 -0.093501 10.059746 0.1106 -0.0605 -0.0011 -0.0010 0.6407 0.0517 0.085507 2.954073 0.110551 -0.00112481 -0.00112481 0.110551 0.110551 0 0 0 0.110551 0.110551 -0.0604633 -0.00102701 -0.00102701 -0.0604633 -0.0604633 -0 -0 0 -0.0604633 -0.0604633 0.5 0.643194 0.643158 0 0.5 -0.787367 -0.787367 0.812411 0.0250437 0.0250437 
3.139 2 1 1 0 0.201387 -0.079116 10.150849 0.0987 -0.0723 -0.0011 -0.0010 0.6407 0.0517 0.085507 2.954143 0.098713 -0.00109416 -0.00109416 0.098713 0.098713 0 0 0 0.098713 0.098713 -0.072301 -0.00102701 -0.00102701 -0.072301 -0.072301 -0 -0 0 -0.072301 -0.072301 0.5 0.643194 0.643161 0 0.5 -0.787383 -0.787383 0.800589 0.013206 0.013206 
3.149 2 1 1 0 0.165425 0.028770 10.045361 0.0869 -0.0841 -0.0011 -0.0010 0.6407 0.0517 0.085507 2.954205 0.0868768 -0.00106514 -0.00106514 0.0868768 0.0868768 0 0 0 0.0868768 0.0868768 -0.0841373 -0.00102701 -0.00102701 -0.0841373 -0.0841373 -0 -0 0 -0.0841373 -0.0841373 0.5 0.643194 0.643163 0 0.5 -0.787396 -0.787396 0.788766 0.00136977 0.00136977 
3.159 2 1 1 0 0.134258 0.002397 10.119682 0.0750 -0.0960 -0.0010 -0.0010 0.6407 0.0517 0.085507 2.954249 0.0750405 -0.00103762 -0.00103762 0.0750405 0.0750405 0 0 0 0.0750405 0.0750405 -0.0959736 -0.00102701 -0.00102701 -0.0959736 -0.0959736 -0 -0 0 -0.0959736 -0.0959736 0.5 0.643194 0.643165 0 0.5 -0.787409 -0.787409 0.776943 -0.0104665 -0.0104665 
3.169 2 1 1 0 0.141450 -0.047949 10.076528 0.0632 -0.1078 -0.0010 -0.0010 0.6407 0.0517 0.085507 2.954246 0.0632042 -0.0010115 -0.0010115 0.0632042 0.0632042 0 0 0 0.0632042 0.0632042 -0.10781 -0.00102701 -0.00102701 -0.10781 -0.10781 -0 -0 0 -0.10781 -0.10781 0.5 0.643194 0.643168 0 0.5 -0.787423 -0.787423 0.76512 -0.0223028 -0.0223028 
3.179 2 1 1 0 0.064731 -0.086309 10.117285 0.0514 -0.1196 -0.0010 -0.0010 0.6407 0.0517 0.085507 2.954185 0.0513679 -0.000986646 -0.000986646 0.0513679 0.0513679 0 0 0 0.0513679 0.0513679 -0.119646 -0.00102701 -0.00102701 -0.119646 -0.119646 -0 -0 0 -0.119646 -0.119646 0.5 0.643194 0.64317 0 0.5 -0.787436 -0.787436 0.753297 -0.0341391 -0.0341391 
3.189 2 1 1 0 -0.009590 -0.119873 9.980630 0.0395 -0.1315 -0.0010 -0.0010 0.6407 0.0517 0.085507 2.954077 0.0395317 -0.000963004 -0.000963004 0.0395317 0.0395317 0 0 0 0.0395317 0.0395317 -0.131482 -0.00102701 -0.00102701 -0.131482 -0.131482 -0 -0 0 -0.131482 -0.131482 0.5 0.643194 0.643173 0 0.5 -0.787449 -0.787449 0.741473 -0.0459754 -0.0459754 
3.199 2 1 1 0 -0.062334 -0.088706 10.064541 0.0277 -0.1433 -0.0009 -0.0010 0.6407 0.0517 0.085507 2.953947 0.0276954 -0.00094044 -0.00094044 0.0276954 0.0276954 0 0 0 0.0276954 0.0276954 -0.143319 -0.00102701 -0.00102701 -0.143319 -0.143319 -0 -0 0 -0.143319 -0.143319 0.5 0.643194 0.643175 0 0.5 -0.787462 -0.787462 0.72965 -0.0578117 -0.0578117 
3.209 2 1 1 0 -0.031167 -0.155835 10.069336 0.0159 -0.1552 -0.0009 -0.0010 0.6407 0.0517 0.085507 2.953809 0.015862 -0.000918923 -0.000918923 0.015862 0.015862 0 0 0 0.015862 0.015862 -0.155152 -0.00102701 -0.00102701 -0.155152 -0.155152 -0 -0 0 -0.155152 -0.155152 0.5 0.643194 0.643177 0 0.5 -0.787471 -0.787471 0.717826 -0.069645 -0.069645 
3.219 2 1 1 0 0.023975 -0.194194 10.009399 0.0040 -0.1670 -0.0009 -0.0010 0.6407 0.0517 0.085507 2.953726 0.00403107 -0.000898368 -0.000898368 0.00403107 0.00403107 0 0 0 0.00403107 0.00403107 -0.166983 -0.00102701 -0.00102701 -0.166983 -0.166983 -0 -0 0 -0.166983 -0.166983 0.5 0.643194 0.643178 0 0.5 -0.787478 -0.787478 0.706002 -0.081476 -0.081476 
3.229 2 1 1 0 0.117476 -0.220566 9.966245 -0.0082 -0.1740 -0.0009 -0.0017 0.6405 0.0517 0.082916 2.953684 -0.00820193 -0.000878725 -0.000878725 -0.00820193 -0.00820193 -0 -0 0 -0.00820193 -0.00820193 -0.174034 -0.00170995 -0.00170995 -0.174034 -0.174034 -0 -0 0 -0.174034 -0.174034 0.5 0.642994 0.642782 0 0.5 -0.785303 -0.785303 0.694186 -0.0911179 -0.0911179 
3.239 2 1 1 0 0.091104 -0.119873 10.026181 -0.0201 -0.1859 -0.0009 -0.0017 0.6405 0.0517 0.082916 2.953687 -0.0201082 -0.000859899 -0.000859899 -0.0201082 -0.0201082 -0 -0 0 -0.0201082 -0.0201082 -0.18594 -0.00170995 -0.00170995 -0.18594 -0.18594 -0 -0 0 -0.18594 -0.18594 0.5 0.642994 0.642803 0 0.5 -0.785418 -0.785418 0.682393 -0.103024 -0.103024 
3.249 2 1 1 0 0.151040 -0.172617 10.136464 -0.0320 -0.1978 -0.0008 -0.0017 0.6405 0.0517 0.082916 2.953767 -0.032005 -0.000841874 -0.000841874 -0.032005 -0.032005 -0 -0 0 -0.032005 -0.032005 -0.197837 -0.00170995 -0.00170995 -0.197837 -0.197837 -0 -0 0 -0.197837 -0.197837 0.5 0.642994 0.642822 0 0.5 -0.78552 -0.78552 0.6706 -0.114921 -0.114921 
3.259 2 1 1 0 0.210977 -0.115078 10.126875 -0.0439 -0.2097 -0.0008 -0.0017 0.6405 0.0517 0.082916 2.953869 -0.0438928 -0.0008246 -0.0008246 -0.0438928 -0.0438928 -0 -0 0 -0.0438928 -0.0438928 -0.209725 -0.00170995 -0.00170995 -0.209725 -0.209725 -0 -0 0 -0.209725 -0.209725 0.5 0.642994 0.642839 0 0.5 -0.785613 -0.785613 0.658804 -0.126809 -0.126809 
3.269 2 1 1 0 0.206182 -0.119873 10.033374 -0.0558 -0.2216 -0.0008 -0.0017 0.6405 0.0517 0.082916 2.953995 -0.0557708 -0.00080801 -0.00080801 -0.0557708 -0.0557708 -0 -0 0 -0.0557708 -0.0557708 -0.221603 -0.00170995 -0.00170995 -0.221603 -0.221603 -0 -0 0 -0.221603 -0.221603 0.5 0.642994 0.642853 0 0.5 -0.785694 -0.785694 0.647008 -0.138687 -0.138687 
3.279 2 1 1 0 0.261323 -0.103091 10.148452 -0.0676 -0.2335 -0.0000 -0.0017 0.6405 0.0517 0.082916 2.954117 -0.067644 -0 -0 -0.067644 -0.067644 -0 -0 0 -0.067644 -0.067644 -0.233476 -0.00170995 -0.00170995 -0.233476 -0.233476 -0 -0 0 -0.233476 -0.233476 0.5 0.642994 0.642867 0 0.5 -0.78577 -0.78577 0.63521 -0.15056 -0.15056 
3.289 2 1 1 0 0.234951 -0.119873 10.107695 -0.0795 -0.2453 -0.0000 -0.0017 0.6405 0.0517 0.082916 2.954225 -0.0795092 -0 -0 -0.0795092 -0.0795092 -0 -0 0 -0.0795092 -0.0795092 -0.245341 -0.00170995 -0.00170995 -0.245341 -0.245341 -0 -0 0 -0.245341 -0.245341 0.5 0.642994 0.642879 0 0.5 -0.785836 -0.785836 0.623411 -0.162425 -0.162425 
3.299 2 1 1 0 0.210977 -0.107886 10.059746 -0.0914 -0.2572 -0.0000 -0.0017 0.6405 0.0517 0.082916 2.954268 -0.0913706 -0 -0 -0.0913706 -0.0913706 -0 -0 0 -0.0913706 -0.0913706 -0.257202 -0.00170995 -0.00170995 -0.257202 -0.257202 -0 -0 0 -0.257202 -0.257202 0.5 0.642994 0.64289 0 0.5 -0.785897 -0.785897 0.611611 -0.174286 -0.174286 
3.309 2 1 1 0 0.134258 -0.083911 9.961450 -0.1032 -0.2691 -0.0000 -0.0017 0.6405 0.0517 0.082916 2.954251 -0.103224 -0 -0 -0.103224 -0.103224 -0 -0 0 -0.103224 -0.103224 -0.269055 -0.00170995 -0.00170995 -0.269055 -0.269055 -0 -0 0 -0.269055 -0.269055 0.5 0.642994 0.6429 0 0.5 -0.78595 -0.78595 0.59981 -0.186139 -0.186139 
3.319 2 1 1 0 0.119873 -0.095898 9.966245 -0.1151 -0.2809 -0.0000 -0.0017 0.6405 0.0517 0.082916 2.954203 -0.115075 -0 -0 -0.115075 -0.115075 -0 -0 0 -0.115075 -0.115075 -0.280907 -0.00170995 -0.00170995 -0.280907 -0.280907 -0 -0 0 -0.280907 -0.280907 0.5 0.642994 0.642909 0 0.5 -0.786 -0.786 0.588009 -0.197991 -0.197991 
3.329 2 1 1 0 -0.038359 -0.172617 10.122080 -0.1269 -0.2928 -0.0000 -0.0017 0.6405 0.0517 0.082916 2.954114 -0.126919 -0 -0 -0.126919 -0.126919 -0 -0 0 -0.126919 -0.126919 -0.292751 -0.00170995 -0.00170995 -0.292751 -0.292751 -0 -0 0 -0.292751 -0.292751 0.5 0.642994 0.642917 0 0.5 -0.786042 -0.786042 0.576207 -0.209835 -0.209835 
3.339 2 1 1 0 -0.021577 -0.057539 10.196401 -0.1388 -0.3046 -0.0000 -0.0017 0.6405 0.0517 0.082916 2.953977 -0.138761 -0 -0 -0.138761 -0.138761 -0 -0 0 -0.138761 -0.138761 -0.304593 -0.00170995 -0.00170995 -0.304593 -0.304593 -0 -0 0 -0.304593 -0.304593 0.5 0.642994 0.642924 0 0.5 -0.786081 -0.786081 0.564404 -0.221677 -0.221677 
3.349 2 1 1 0 0.007192 -0.112681 10.069336 -0.1506 -0.3164 -0.0000 -0.0017 0.6405 0.0517 0.082916 2.953849 -0.150601 -0 -0 -0.150601 -0.150601 -0 -0 0 -0.150601 -0.150601 -0.316433 -0.00170995 -0.00170995 -0.316433 -0.316433 -0 -0 0 -0.316433 -0.316433 0.5 0.642994 0.642931 0 0.5 -0.786118 -0.786118 0.552601 -0.233517 -0.233517 
3.359 2 1 1 0 0.033564 -0.129463 10.038169 -0.1624 -0.3283 -0.0000 -0.0017 0.6405 0.0517 0.082916 2.953755 -0.162435 -0 -0 -0.162435 -0.162435 -0 -0 0 -0.162435 -0.162435 -0.328267 -0.00170995 -0.00170995 -0.328267 -0.328267 -0 -0 0 -0.328267 -0.328267 0.5 0.642994 0.642936 0 0.5 -0.786148 -0.786148 0.540797 -0.245351 -0.245351 
3.369 2 1 1 0 -0.059937 -0.095898 10.057348 -0.1743 -0.3401 -0.0000 -0.0017 0.6405 0.0517 0.082916 2.953679 -0.174266 -0 -0 -0.174266 -0.174266 -0 -0 0 -0.174266 -0.174266 -0.340097 -0.00170995 -0.00170995 -0.340097 -0.340097 -0 -0 0 -0.340097 -0.340097 0.5 0.642994 0.642941 0 0.5 -0.786174 -0.786174 0.528993 -0.257181 -0.257181 
3.379 2 1 1 0 -0.014385 -0.136655 10.131670 -0.1861 -0.3519 -0.0000 -0.0017 0.6405 0.0517 0.082916 2.953634 -0.186096 -0 -0 -0.186096 -0.186096 -0 -0 0 -0.186096 -0.186096 -0.351928 -0.00170995 -0.00170995 -0.351928 -0.351928 -0 -0 0 -0.351928 -0.351928 0.5 0.642994 0.642946 0 0.5 -0.7862 -0.7862 0.517188 -0.269012 -0.269012 
3.389 2 1 1 0 0.124668 -0.064731 10.066938 -0.1979 -0.3638 -0.0000 -0.0017 0.6405 0.0517 0.082916 2.953640 -0.197928 -0 -0 -0.197928 -0.197928 -0 -0 0 -0.197928 -0.197928 -0.36376 -0.00170995 -0.00170995 -0.36376 -0.36376 -0 -0 0 -0.36376 -0.36376 0.5 0.642994 0.64295 0 0.5 -0.786227 -0.786227 0.505383 -0.280844 -0.280844 
3.399 2 1 1 0 0.165425 -0.074321 10.112490 -0.2098 -0.3756 -0.0000 -0.0017 0.6405 0.0517 0.082916 2.953711 -0.209753 -0 -0 -0.209753 -0.209753 -0 -0 0 -0.209753 -0.209753 -0.375585 -0.00170995 -0.00170995 -0.375585 -0.375585 -0 -0 0 -0.375585 -0.375585 0.5 0.642994 0.642954 0 0.5 -0.786247 -0.786247 0.493578 -0.292669 -0.292669 
3.409 2 1 1 0 0.179810 -0.093501 10.007002 -0.2216 -0.3874 -0.0000 -0.0017 0.6405 0.0517 0.082916 2.953813 -0.221577 -0 -0 -0.221577 -0.221577 -0 -0 0 -0.221577 -0.221577 -0.387409 -0.00170995 -0.00170995 -0.387409 -0.387409 -0 -0 0 -0.387409 -0.387409 0.5 0.642994 0.642957 0 0.5 -0.786265 -0.786265 0.481772 -0.304493 -0.304493 
3.419 2 1 1 0 0.196592 -0.081514 10.033374 -0.2334 -0.3992 -0.0000 -0.0017 0.6405 0.0517 0.082916 2.953931 -0.233396 -0 -0 -0.233396 -0.233396 -0 -0 0 -0.233396 -0.233396 -0.399228 -0.00170995 -0.00170995 -0.399228 -0.399228 -0 -0 0 -0.399228 -0.399228 0.5 0.642994 0.64296 0 0.5 -0.786278 -0.786278 0.469966 -0.316312 -0.316312 
3.429 2 1 1 0 0.187002 -0.139053 9.997412 -0.2452 -0.4110 -0.0000 -0.0017 0.6405 0.0517 0.082916 2.954042 -0.245215 -0 -0 -0.245215 -0.245215 -0 -0 0 -0.245215 -0.245215 -0.411047 -0.00170995 -0.00170995 -0.411047 -0.411047 -0 -0 0 -0.411047 -0.411047 0.5 0.642994 0.642962 0 0.5 -0.786291 -0.786291 0.45816 -0.328131 -0.328131 
3.439 2 1 1 0 0.225361 -0.153437 10.076528 -0.2570 -0.4229 -0.0000 -0.0017 0.6405 0.0517 0.082916 2.954145 -0.257034 -0 -0 -0.257034 -0.257034 -0 -0 0 -0.257034 -0.257034 -0.422866 -0.00170995 -0.00170995 -0.422866 -0.422866 -0 -0 0 -0.422866 -0.422866 0.5 0.642994 0.642964 0 0.5 -0.786304 -0.786304 0.446354 -0.33995 -0.33995 
3.449 2 1 1 0 0.203784 -0.107886 9.956655 -0.2689 -0.4347 -0.0000 -0.0017 0.6405 0.0517 0.082916 2.954205 -0.268854 -0 -0 -0.268854 -0.268854 -0 -0 0 -0.268854 -0.268854 -0.434686 -0.00170995 -0.00170995 -0.434686 -0.434686 -0 -0 0 -0.434686 -0.434686 0.5 0.642994 0.642967 0 0.5 -0.786317 -0.786317 0.434547 -0.35177 -0.35177 
3.459 2 1 1 0 0.153437 -0.208579 9.971040 -0.2807 -0.4465 -0.0000 -0.0017 0.6405 0.0517 0.082916 2.954223 -0.280673 -0 -0 -0.280673 -0.280673 -0 -0 0 -0.280673 -0.280673 -0.446505 -0.00170995 -0.00170995 -0.446505 -0.446505 -0 -0 0 -0.446505 -0.446505 0.5 0.642994 0.642969 0 0.5 -0.78633 -0.78633 0.422741 -0.363589 -0.363589 
3.469 2 1 1 0 0.165425 -0.155835 10.042964 -0.2925 -0.4583 -0.0000 -0.0017 0.6405 0.0517 0.082916 2.954212 -0.292494 -0 -0 -0.292494 -0.292494 -0 -0 0 -0.292494 -0.292494 -0.458325 -0.00165412 -0.00165412 -0.458325 -0.458325 -0 -0 0 -0.458325 -0.458325 0.5 0.642994 0.642972 0 0.5 -0.786343 -0.786343 0.410934 -0.37541 -0.37541 
3.479 2 1 1 0 0.100693 -0.050347 10.064541 -0.3043 -0.4701 -0.0000 -0.0016 0.6405 0.0517 0.082916 2.954142 -0.304312 -0 -0 -0.304312 -0.304312 -0 -0 0 -0.304312 -0.304312 -0.470144 -0.00158865 -0.00158865 -0.470144 -0.470144 -0 -0 0 -0.470144 -0.470144 0.5 0.642994 0.642974 0 0.5 -0.786354 -0.786354 0.399127 -0.387228 -0.387228 
3.489 2 1 1 0 0.031167 -0.139053 9.954258 -0.3161 -0.4820 -0.0000 -0.0015 0.6405 0.0517 0.082916 2.954047 -0.316125 -0 -0 -0.316125 -0.316125 -0 -0 0 -0.316125 -0.316125 -0.481957 -0.0015282 -0.0015282 -0.481957 -0.481957 -0 -0 0 -0.481957 -0.481957 0.5 0.642994 0.642975 0 0.5 -0.786361 -0.786361 0.38732 -0.399041 -0.399041 
3.499 2 1 1 0 0.067129 -0.083911 10.095708 -0.3279 -0.4938 -0.0000 -0.0015 0.6405 0.0517 0.082916 2.953941 -0.327939 -0 -0 -0.327939 -0.327939 -0 -0 0 -0.327939 -0.327939 -0.493771 -0.00147217 -0.00147217 -0.493771 -0.493771 -0 -0 0 -0.493771 -0.493771 0.5 0.642994 0.642976 0 0.5 -0.786368 -0.786368 0.375513 -0.410855 -0.410855 
3.509 2 1 1 0 0.028770 -0.122271 10.105297 -0.3398 -0.5056 -0.0000 -0.0014 0.6405 0.0517 0.082916 2.953855 -0.339753 -0 -0 -0.339753 -0.339753 -0 -0 0 -0.339753 -0.339753 -0.505585 -0.00142013 -0.00142013 -0.505585 -0.505585 -0 -0 0 -0.505585 -0.505585 0.5 0.642994 0.642977 0 0.5 -0.786374 -0.786374 0.363705 -0.422669 -0.422669 
3.519 2 1 1 0 0.023975 -0.141450 10.059746 -0.3516 -0.5174 -0.0000 -0.0014 0.6405 0.0517 0.082916 2.953773 -0.351567 -0 -0 -0.351567 -0.351567 -0 -0 0 -0.351567 -0.351567 -0.517399 -0.00137162 -0.00137162 -0.517399 -0.517399 -0 -0 0 -0.517399 -0.517399 0.5 0.642994 0.642978 0 0.5 -0.786381 -0.786381 0.351898 -0.434483 -0.434483 
3.529 2 1 1 0 0.069526 -0.119873 10.045361 -0.3634 -0.5292 -0.0000 -0.0013 0.6405 0.0517 0.082916 2.953735 -0.363377 -0 -0 -0.363377 -0.363377 -0 -0 0 -0.363377 -0.363377 -0.529209 -0.00132636 -0.00132636 -0.529209 -0.529209 -0 -0 0 -0.529209 -0.529209 0.5 0.642994 0.642979 0 0.5 -0.786383 -0.786383 0.34009 -0.446293 -0.446293 
3.539 2 1 1 0 0.081514 -0.158232 10.105297 -0.3752 -0.5410 -0.0000 -0.0013 0.6405 0.0517 0.082916 2.953724 -0.375185 -0 -0 -0.375185 -0.375185 -0 -0 0 -0.375185 -0.375185 -0.541016 -0.00128395 -0.00128395 -0.541016 -0.541016 -0 -0 0 -0.541016 -0.541016 0.5 0.642994 0.642979 0 0.5 -0.786383 -0.786383 0.328282 -0.4581 -0.4581 
3.549 2 1 1 0 0.187002 -0.146245 9.971040 -0.3870 -0.5528 -0.0000 -0.0012 0.6405 0.0517 0.082916 2.953748 -0.386992 -0 -0 -0.386992 -0.386992 -0 -0 0 -0.386992 -0.386992 -0.552824 -0.00124418 -0.00124418 -0.552824 -0.552824 -0 -0 0 -0.552824 -0.552824 0.5 0.642994 0.642979 0 0.5 -0.786383 -0.786383 0.316475 -0.469908 -0.469908 
3.559 2 1 1 0 0.122271 -0.129463 10.093310 -0.3988 -0.5646 -0.0000 -0.0012 0.6405 0.0517 0.082916 2.953830 -0.3988 -0 -0 -0.3988 -0.3988 -0 -0 0 -0.3988 -0.3988 -0.564632 -0.00120679 -0.00120679 -0.564632 -0.564632 -0 -0 0 -0.564632 -0.564632 0.5 0.642994 0.642979 0 0.5 -0.786383 -0.786383 0.304667 -0.481716 -0.481716 
3.569 2 1 1 0 0.198989 -0.129463 10.297094 -0.4106 -0.5764 -0.0000 -0.0012 0.6405 0.0517 0.082916 2.953904 -0.410608 -0 -0 -0.410608 -0.410608 -0 -0 0 -0.410608 -0.410608 -0.576439 -0.00117157 -0.00117157 -0.576439 -0.576439 -0 -0 0 -0.576439 -0.576439 0.5 0.642994 0.642979 0 0.5 -0.786383 -0.786383 0.292859 -0.493523 -0.493523 
3.579 2 1 1 0 0.062334 -0.086309 10.134068 -0.4224 -0.5882 -0.0000 -0.0011 0.6405 0.0517 0.082916 2.953931 -0.422415 -588247 0.5 0.642994 0.642979 0 0.5 -0.786383 -0.786383 0.281052 -0.505331 -0.505331 
3.589 2 1 1 0 0.141450 -0.122271 10.174824 -0.4342 -0.6001 -0.0000 -0.0011 0.6405 0.0517 0.082916 2.953951 -0.434223 -0 -0 -0.434223 -0.434223 -0 -0 0 -0.434223 -0.434223 -0.600055 -0.00110699 -0.00110699 -0.600055 -0.600055 -0 -0 0 -0.600055 -0.600055 0.5 0.642994 0.642979 0 0.5 -0.786383 -0.786383 0.269244 -0.517139 -0.517139 
3.599 2 1 1 0 0.071924 -0.134258 10.100503 -0.4460 -0.6119 -0.0000 -0.0011 0.6405 0.0517 0.082916 2.953966 -0.446031 -0 -0 -0.446031 -0.446031 -0 -0 0 -0.446031 -0.446031 -0.611862 -0.0010773 -0.0010773 -0.611862 -0.611862 -0 -0 0 -0.611862 -0.611862 0.5 0.642994 0.642979 0 0.5 -0.786383 -0.786383 0.257436 -0.528947 -0.528947 
3.609 2 1 1 0 0.062334 -0.110283 10.007002 -0.4578 -0.6237 -0.0000 -0.0010 0.6405 0.0517 0.082916 2.953959 -0.457838 -0 -0 -0.457838 -0.457838 -0 -0 0 -0.457838 -0.457838 -0.62367 -0.00104917 -0.00104917 -0.62367 -0.62367 -0 -0 0 -0.62367 -0.62367 0.5 0.642994 0.642979 0 0.5 -0.786383 -0.786383 0.245628 -0.540754 -0.540754 
3.619 2 1 1 0 0.043154 -0.131860 10.074131 -0.4696 -0.6355 -0.0000 -0.0010 0.6405 0.0517 0.082916 2.953912 -0.469646 -0 -0 -0.469646 -0.469646 -0 -0 0 -0.469646 -0.469646 -0.635478 -0.00102245 -0.00102245 -0.635478 -0.635478 -0 -0 0 -0.635478 -0.635478 0.5 0.642994 0.642979 0 0.5 -0.786383 -0.786383 0.233821 -0.552562 -0.552562 
3.629 2 1 1 0 0.105488 -0.122271 9.985424 -0.4815 -0.6473 -0.0000 -0.0010 0.6405 0.0517 0.082916 2.953887 -0.481454 -0 -0 -0.481454 -0.481454 -0 -0 0 -0.481454 -0.481454 -0.647285 -0.000997065 -0.000997065 -0.647285 -0.647285 -0 -0 0 -0.647285 -0.647285 0.5 0.642994 0.642979 0 0.5 -0.786383 -0.786383 0.222013 -0.56437 -0.56437 
3.639 2 1 1 0 0.059937 -0.105488 9.975835 -0.4933 -0.6591 -0.0000 -0.0010 0.6405 0.0517 0.082916 2.953838 -0.493261 -0 -0 -0.493261 -0.493261 -0 -0 0 -0.493261 -0.493261 -0.659093 -0.000972909 -0.000972909 -0.659093 -0.659093 -0 -0 0 -0.659093 -0.659093 0.5 0.642994 0.642979 0 0.5 -0.786383 -0.786383 0.210205 -0.576177 -0.576177 
3.649 2 1 1 0 0.086309 -0.175015 10.107695 -0.5051 -0.6709 -0.0000 -0.0009 0.6405 0.0517 0.082916 2.953840 -0.505069 -0 -0 -0.505069 -0.505069 -0 -0 0 -0.505069 -0.505069 -0.670901 -0.000949896 -0.000949896 -0.670901 -0.670901 -0 -0 0 -0.670901 -0.670901 0.5 0.642994 0.642979 0 0.5 -0.786383 -0.786383 0.198398 -0.587985 -0.587985 
3.659 2 1 1 0 0.167822 -0.155835 10.112490 -0.5169 -0.6827 -0.0000 -0.0009 0.6405 0.0517 0.082916 2.953863 -0.516877 -0 -0 -0.516877 -0.516877 -0 -0 0 -0.516877 -0.516877 -0.682709 -0.000927954 -0.000927954 -0.682709 -0.682709 -0 -0 0 -0.682709 -0.682709 0.5 0.642994 0.642979 0 0.5 -0.786383 -0.786383 0.18659 -0.599793 -0.599793 
3.669 2 1 1 0 0.110283 -0.148643 10.042964 -0.5287 -0.6945 -0.0000 -0.0009 0.6405 0.0517 0.082916 2.953879 -0.528684 -0 -0 -0.528684 -0.528684 -0 -0 0 -0.528684 -0.528684 -0.694516 -0.000906997 -0.000906997 -0.694516 -0.694516 -0 -0 0 -0.694516 -0.694516 0.5 0.642994 0.642979 0 0.5 -0.786383 -0.786383 0.174782 -0.6116 -0.6116 
3.679 2 1 1 0 0.134258 -0.167822 10.014194 -0.5405 -0.7063 -0.0000 -0.0009 0.6405 0.0517 0.082916 2.953912 -0.540492 -0 -0 -0.540492 -0.540492 -0 -0 0 -0.540492 -0.540492 -0.706324 -0.000886961 -0.000886961 -0.706324 -0.706324 -0 -0 0 -0.706324 -0.706324 0.5 0.642994 0.642979 0 0.5 -0.786383 -0.786383 0.162975 -0.623408 -0.623408 
3.689 2 1 1 0 0.112681 -0.115078 9.995014 -0.5523 -0.7181 -0.0000 -0.0009 0.6405 0.0517 0.082916 2.953955 -0.5523 -0 -0 -0.5523 -0.5523 -0 -0 0 -0.5523 -0.5523 -0.718132 -0.000867796 -0.000867796 -0.718132 -0.718132 -0 -0 0 -0.718132 -0.718132 0.5 0.642994 0.642979 0 0.5 -0.786383 -0.786383 0.151167 -0.635216 -0.635216 
3.699 2 1 1 0 0.170220 -0.172617 10.042964 -0.5641 -0.7299 -0.0000 -0.0008 0.6405 0.0517 0.082916 2.953977 -0.564107 -0 -0 -0.564107 -0.564107 -0 -0 0 -0.564107 -0.564107 -0.729939 -0.000849454 -0.000849454 -0.729939 -0.729939 -0 -0 0 -0.729939 -0.729939 0.5 0.642994 0.642979 0 0.5 -0.786383 -0.786383 0.139359 -0.647023 -0.647023 
3.709 2 1 1 0 0.206182 -0.143848 10.066938 -0.5763 -0.7370 -0.0000 -0.0008 0.6403 0.0516 0.080325 2.954031 -0.576319 -0 -0 -0.576319 -0.576319 -0 -0 0 -0.576319 -0.576319 -0.736968 -0.000835698 -0.000835698 -0.736968 -0.736968 -0 -0 0 -0.736968 -0.736968 0.5 0.642793 0.642582 0 0.5 -0.784203 -0.784203 0.12756 -0.656643 -0.656643 
3.719 2 1 1 0 0.081514 -0.103091 9.963847 -0.5882 -0.7489 -0.0000 -0.0008 0.6403 0.0516 0.080325 2.954065 -0.588207 -0 -0 -0.588207 -0.588207 -0 -0 0 -0.588207 -0.588207 -0.748857 -0.000835698 -0.000835698 -0.748857 -0.748857 -0 -0 0 -0.748857 -0.748857 0.5 0.642793 0.642603 0 0.5 -0.784316 -0.784316 0.115784 -0.668532 -0.668532 
3.729 2 1 1 0 0.103091 -0.052744 10.138862 -0.6001 -0.7607 -0.0000 -0.0008 0.6403 0.0516 0.080325 2.954087 -0.600087 -0 -0 -0.600087 -0.600087 -0 -0 0 -0.600087 -0.600087 -0.760736 -0.000835698 -0.000835698 -0.760736 -0.760736 -0 -0 0 -0.760736 -0.760736 0.5 0.642793 0.642622 0 0.5 -0.784418 -0.784418 0.104007 -0.680411 -0.680411 
3.739 2 1 1 0 0.196592 -0.069526 10.059746 -0.6120 -0.7726 -0.0000 -0.0008 0.6403 0.0516 0.080325 2.954101 -0.611956 -0 -0 -0.611956 -0.611956 -0 -0 0 -0.611956 -0.611956 -0.772606 -0.000835698 -0.000835698 -0.772606 -0.772606 -0 -0 0 -0.772606 -0.772606 0.5 0.642793 0.642638 0 0.5 -0.784509 -0.784509 0.0922282 -0.692281 -0.692281 
3.749 2 1 1 0 0.160630 -0.115078 10.088515 -0.6238 -0.7845 -0.0000 -0.0008 0.6403 0.0516 0.080325 2.954074 -0.623817 -0 -0 -0.623817 -0.623817 -0 -0 0 -0.623817 -0.623817 -0.784467 -0.000835698 -0.000835698 -0.784467 -0.784467 -0 -0 0 -0.784467 -0.784467 0.5 0.642793 0.642653 0 0.5 -0.78459 -0.78459 0.0804482 -0.704142 -0.704142 
3.759 2 1 1 0 0.095898 -0.105488 10.126875 -0.6357 -0.7963 -0.0000 -0.0008 0.6403 0.0516 0.080325 2.954044 -0.635672 -0 -0 -0.635672 -0.635672 -0 -0 0 -0.635672 -0.635672 -0.796321 -0.000835698 -0.000835698 -0.796321 -0.796321 -0 -0 0 -0.796321 -0.796321 0.5 0.642793 0.642666 0 0.5 -0.784664 -0.784664 0.068667 -0.715997 -0.715997 
3.769 2 1 1 0 0.127065 -0.124668 10.141259 -0.6475 -0.8082 -0.0000 -0.0008 0.6403 0.0516 0.080325 2.954006 -0.64752 -0 -0 -0.64752 -0.64752 -0 -0 0 -0.64752 -0.64752 -0.808169 -0.000835698 -0.000835698 -0.808169 -0.808169 -0 -0 0 -0.808169 -0.808169 0.5 0.642793 0.642678 0 0.5 -0.784729 -0.784729 0.0568847 -0.727844 -0.727844 
3.779 2 1 1 0 0.064731 -0.117476 10.009399 -0.6594 -0.8200 -0.0000 -0.0008 0.6403 0.0516 0.080325 2.953965 -0.659362 -0 -0 -0.659362 -0.659362 -0 -0 0 -0.659362 -0.659362 -0.820011 -0.000835698 -0.000835698 -0.820011 -0.820011 -0 -0 0 -0.820011 -0.820011 0.5 0.642793 0.642689 0 0.5 -0.784788 -0.784788 0.0451015 -0.739687 -0.739687 
3.789 2 1 1 0 0.083911 -0.117476 10.050156 -0.6712 -0.8318 -0.0000 -0.0008 0.6403 0.0516 0.080325 2.953937 -0.671198 -0 -0 -0.671198 -0.671198 -0 -0 0 -0.671198 -0.671198 -0.831848 -0.000835698 -0.000835698 -0.831848 -0.831848 -0 -0 0 -0.831848 -0.831848 0.5 0.642793 0.642698 0 0.5 -0.784841 -0.784841 0.0333176 -0.751523 -0.751523 
3.799 2 1 1 0 0.059937 -0.155835 10.014194 -0.6830 -0.8437 -0.0000 -0.0008 0.6403 0.0516 0.080325 2.953909 -0.683032 -0 -0 -0.683032 -0.683032 -0 -0 0 -0.683032 -0.683032 -0.843682 -0.000835698 -0.000835698 -0.843682 -0.843682 -0 -0 0 -0.843682 -0.843682 0.5 0.642793 0.642707 0 0.5 -0.78489 -0.78489 0.0215328 -0.763357 -0.763357 
3.809 2 1 1 0 0.055142 -0.098296 9.990219 -0.6949 -0.8555 -0.0000 -0.0008 0.6403 0.0516 0.080325 2.953876 -0.694859 -0 -0 -0.694859 -0.694859 -0 -0 0 -0.694859 -0.694859 -0.855509 -0.000835698 -0.000835698 -0.855509 -0.855509 -0 -0 0 -0.855509 -0.855509 0.5 0.642793 0.642715 0 0.5 -0.784931 -0.784931 0.00974733 -0.775184 -0.775184 
3.819 2 1 1 0 0.105488 -0.086309 10.059746 -0.7067 -0.8673 -0.0000 -0.0008 0.6403 0.0516 0.080325 2.953849 -0.706684 -0 -0 -0.706684 -0.706684 -0 -0 0 -0.706684 -0.706684 -0.867334 -0.000835698 -0.000835698 -0.867334 -0.867334 -0 -0 0 -0.867334 -0.867334 0.5 0.642793 0.642722 0 0.5 -0.78497 -0.78497 -0.00203872 -0.787009 -0.787009 
3.829 2 1 1 0 0.146245 -0.050347 10.062143 -0.7189 -0.8744 -0.0000 -0.0033 0.6401 0.0516 0.077734 2.953825 -0.71891 -0 -0 -0.71891 -0.71891 -0 -0 0 -0.71891 -0.71891 -0.874377 -0.00334058 -0.00334058 -0.874377 -0.874377 -0 -0 0 -0.874377 -0.874377 0.5 0.642592 0.642332 0 0.5 -0.782826 -0.782826 -0.0138171 -0.796644 -0.796644 
3.839 2 1 1 0 0.175015 -0.160630 10.016591 -0.7308 -0.8863 -0.0000 -0.0033 0.6401 0.0516 0.077734 2.953835 -0.730804 -0 -0 -0.730804 -0.730804 -0 -0 0 -0.730804 -0.730804 -0.886271 -0.00334058 -0.00334058 -0.886271 -0.886271 -0 -0 0 -0.886271 -0.886271 0.5 0.642592 0.642357 0 0.5 -0.782965 -0.782965 -0.0255723 -0.808538 -0.808538 
